/**
 * \file       :ntc_table.c
 * \brief      :The resistance array of two kinds of NTC at -70 degrees Celsius to 150 degrees Celsius(respectively PT103J2_RT, PT103G2_RT)
 * \author     :liyunyi
 * \date       :2022.7.12
 * \version    :v2.0.0
 * \copyright  :
 */
#include "ntc_table.h"
#define ARRAY_NUM(a) (sizeof(a)/sizeof(a[0]))

float j2_form_value[] = {
2833440.96,	2823400.07,	2813394.77,	2803424.93,	2793490.41,	2783591.10,	2773726.88,	2763897.60,	2754103.16,	2744343.43,	2734618.28,	2724927.60,	2715271.26,	2705649.13,	2696061.11,	2686507.06,	2676986.87,	2667500.41,	2658047.57,	2648628.23,
2639242.27,	2629889.57,	2620570.02,	2611283.49,	2602029.87,	2592809.04,	2583620.88,	2574465.29,	2565342.14,	2556251.32,	2547192.72,	2538166.22,	2529171.70,	2520209.06,	2511278.18,	2502378.95,	2493511.25,	2484674.98,	2475870.02,	2467096.27,
2458353.60,	2449641.92,	2440961.11,	2432311.06,	2423691.66,	2415102.81,	2406544.40,	2398016.31,	2389518.45,	2381050.69,	2372612.95,	2364205.11,	2355827.06,	2347478.70,	2339159.92,	2330870.63,	2322610.71,	2314380.06,	2306178.58,	2298006.16,
2289862.70,	2281748.10,	2273662.25,	2265605.06,	2257576.42,	2249576.23,	2241604.40,	2233660.81,	2225745.37,	2217857.98,	2209998.55,	2202166.96,	2194363.13,	2186586.95,	2178838.33,	2171117.17,	2163423.37,	2155756.83,	2148117.46,	2140505.16,
2132919.84,	2125361.40,	2117829.74,	2110324.78,	2102846.41,	2095394.54,	2087969.07,	2080569.92,	2073197.00,	2065850.19,	2058529.43,	2051234.61,	2043965.63,	2036722.42,	2029504.87,	2022312.90,	2015146.42,	2008005.33,	2000889.55,	1993798.99,
1986733.55,	1979693.15,	1972677.70,	1965687.11,	1958721.29,	1951780.16,	1944863.62,	 1937971.60,	1931104.00,	1924260.73,	1917441.72,	1910646.87,	1903876.10,	1897129.32,	1890406.45,	1883707.40,	1877032.10,	1870380.45,	1863752.37,	1857147.78,
1850566.59,	1844008.73,	1837474.10,	1830962.63,	1824474.24,	1818008.84,	1811566.35,	1805146.69,	1798749.78,	1792375.54,	1786023.89,	1779694.75,	1773388.03,	1767103.66,	1760841.57,	1754601.66,	1748383.87,	1742188.11,	1736014.31,	1729862.38,
1723732.26,	1717623.86,	1711537.10,	1705471.92,	1699428.23,	1693405.95,	1687405.02,	1681425.35,	1675466.88,	1669529.51,	1663613.19,	1657717.84,	1651843.37,	1645989.72,	1640156.82,	1634344.58,	1628552.95,	1622781.83,	1617031.17,	1611300.89,
1605590.91,	1599901.17,	1594231.59,	1588582.10,	1582952.63,	1577343.11,	1571753.47,	1566183.64,	1560633.55,	1555103.12,	1549592.29,	1544100.99,	1538629.15,	1533176.70,	1527743.57,	1522329.70,	1516935.01,	1511559.44,	1506202.92,	1500865.37,
1495546.75,	1490246.97,	1484965.97,	1479703.69,	1474460.05,	1469235.00,	1464028.46,	1458840.38,	1453670.68,	1448519.29,	1443386.17,	1438271.23,	1433174.42,	1428095.67,	1423034.92,	1417992.10,	1412967.15,	1407960.01,	1402970.62,	1397998.90,
1393044.80,	1388108.26,	1383189.22,	1378287.60,	1373403.35,	1368536.41,	1363686.72,	1358854.22,	1354038.84,	1349240.52,	1344459.21,	1339694.84,	1334947.36,	1330216.70,	1325502.80,	1320805.61,	1316125.06,	1311461.10,	1306813.67,	1302182.70,
1297568.15,	1292969.95,	1288388.04,	1283822.37,	1279272.89,	1274739.52,	1270222.22,	1265720.92,	1261235.58,	1256766.13,	1252312.52,	1247874.69,	1243452.59,	1239046.16,	1234655.35,	1230280.09,	1225920.34,	1221576.04,	1217247.13,	1212933.56,
1208635.28,	1204352.24,	1200084.36,	1195831.62,	1191593.94,	1187371.28,	1183163.59,	1178970.80,	1174792.88,	1170629.76,	1166481.39,	1162347.72,	1158228.70,	1154124.28,	1150034.40,	1145959.02,	1141898.08,	1137851.53,	1133819.31,	1129801.39,
1125797.71,	1121808.21,	1117832.85,	1113871.58,	1109924.35,	1105991.10,	1102071.79,	1098166.38,	1094274.80,	1090397.01,	1086532.96,	1082682.61,	1078845.90,	1075022.79,	1071213.22,	1067417.16,	1063634.54,	1059865.34,	1056109.48,	1052366.94,
1048637.66,	1044921.60,	1041218.70,	1037528.93,	1033852.23,	1030188.57,	1026537.88,	1022900.13,	1019275.27,	1015663.26,	1012064.05,	1008477.59,	1004903.84,	1001342.76,	997794.29,	994258.40,	990735.04,	987224.17,	983725.74,	980239.70,
963849,	960288.78,	956743.02,	953211.63,	949694.57,	946191.77,	942703.17,	939228.7,	935768.3,	932321.91,	928889.47,	925470.91,	922066.19,	918675.22,	915297.96,	911934.35,	908584.32,	905247.82,	901924.78,	898615.15,	895318.87,
892035.88,	888766.12,	885509.53,	882266.06,	879035.64,	875818.23,	872613.77,	869422.19,	866243.44,	863077.47,	859924.22,	856783.63,	853655.66,	850540.23,	847437.31,	844346.83,	841268.74,	838202.99,	835149.53,	832108.29,	829079.23,
826062.29,	823057.43,	820064.58,	817083.7,	814114.73,	811157.62,	808212.33,	805278.8,	802356.97,	799446.8,	796548.24,	793661.24,	790785.75,	787921.71,	785069.08,	782227.81,	779397.84,	776579.14,	773771.65,	770975.32,	768190.11,
765415.96,	762652.84,	759900.68,	757159.45,	754429.1,	751709.58,	749000.84,	746302.83,	743615.52,	740938.86,	738272.79,	735617.27,	732972.27,	730337.72,	727713.6,	725099.85,	722496.42,	719903.28,	717320.38,	714747.68,	712185.13,
709632.69,	707090.31,	704557.96,	702035.58,	699523.14,	697020.6,	694527.91,	692045.03,	689571.91,	687108.52,	684654.82,	682210.76,	679776.3,	677351.4,	674936.02,	672530.12,	670133.66,	667746.6,	665368.89,	663000.51,	660641.4,
658291.54,	655950.87,	653619.36,	651296.98,	648983.68,	646679.43,	644384.18,	642097.9,	639820.54,	637552.08,	635292.48,	633041.69,	630799.68,	628566.41,	626341.85,	624125.96,	621918.69,	619720.02,	617529.91,	615348.33,	613175.22,
611010.57,	608854.33,	606706.48,	604566.96,	602435.75,	600312.82,	598198.12,	596091.63,	593993.31,	591903.12,	589821.03,	587747.01,	585681.02,	583623.02,	581573,	579530.9,	577496.7,	575470.37,	573451.86,	571441.16,	569438.22,
567443.01,	565455.5,	563475.67,	561503.47,	559538.87,	557581.84,	555632.36,	553690.38,	551755.88,	549828.83,	547909.19,	545996.94,	544092.04,	542194.46,	540304.17,	538421.14,	536545.35,	534676.75,	532815.33,	530961.04,	529113.87,
527273.78,	525440.74,	523614.72,	521795.69,	519983.63,	518178.5,	516380.28,	514588.94,	512804.44,	511026.77,	509255.88,	507491.76,	505734.38,	503983.7,	502239.7,	500502.35,	498771.63,	497047.51,	495329.95,	493618.93,	491914.44,
490216.42,	488524.87,	486839.76,	485161.05,	483488.72,	481822.75,	480163.11,	478509.77,	476862.7,	475221.89,	473587.3,	471958.91,	470336.69,	468720.62,	467110.67,	465506.82,	463909.04,	462317.31,	460731.6,	459151.89,	457578.15,
456010.36,	454448.5,	452892.53,	451342.44,	449798.19,	448259.78,	446727.17,	445200.34,	443679.26,	442163.91,	440654.27,	439150.32,	437652.03,	436159.38,	434672.34,	433190.9,	431715.02,	430244.69,	428779.88,	427320.58,	425866.75,
424418.38,	422975.45,	421537.93,	420105.79,	418679.03,	417257.61,	415841.51,	414430.72,	413025.21,	411624.95,	410229.94,	408840.14,	407455.53,	406076.1,	404701.83,	403332.68,	401968.65,	400609.7,	399255.83,	397907.01,	396563.21,
395224.42,	393890.62,	392561.79,	391237.91,	389918.95,	388604.9,	387295.74,	385991.44,	384692,	383397.38,	382107.57,	380822.55,	379542.3,	378266.8,	376996.03,	375729.98,	374468.62,	373211.93,	371959.9,	370712.51,	369469.73,
368231.55,	366997.96,	365768.92,	364544.43,	363324.47,	362109.01,	360898.05,	359691.55,	358489.51,	357291.9,	356098.72,	354909.93,	353725.52,	352545.48,	351369.78,	350198.42,	349031.37,	347868.61,	346710.13,	345555.91,	344405.93,
343260.18,	342118.64,	340981.3,	339848.13,	338719.11,	337594.24,	336473.5,	335356.87,	334244.33,	333135.86,	332031.46,	330931.1,	329834.77,	328742.45,	327654.13,	326569.79,	325489.41,	324412.98,	323340.49,	322271.91,	321207.23,
320146.44,	319089.52,	318036.45,	316987.22,	315941.82,	314900.23,	313862.43,	312828.41,	311798.16,	310771.65,	309748.88,	308729.83,	307714.48,	306702.83,	305694.85,	304690.53,	303689.85,	302692.81,	301699.39,	300709.57,	299723.34,
298740.68,	297761.58,	296786.04,	295814.02,	294845.52,	293880.53,	292919.03,	291961.01,	291006.44,	290055.33,	289107.66,	288163.41,	287222.57,	286285.12,	285351.06,	284420.36,	283493.02,	282569.03,	281648.36,	280731.01,	279816.97,
278906.21,	277998.73,	277094.52,	276193.56,	275295.84,	274401.34,	273510.06,	272621.98,	271737.09,	270855.37,	269976.82,	269101.42,	268229.16,	267360.03,	266494.01,	265631.09,	264771.27,	263914.52,	263060.84,	262210.21,	261362.62,
260518.07,	259676.53,	258838,	258002.47,	257169.91,	256340.34,	255513.72,	254690.05,	253869.31,	253051.51,	252236.61,	251424.62,	250615.53,	249809.31,	249005.96,	248205.47,	247407.83,	246613.03,	245821.05,	245031.88,	244245.52,
243461.95,	242681.16,	241903.14,	241127.88,	240355.37,	239585.6,	238818.56,	238054.24,	237292.62,	236533.7,	235777.46,	235023.91,	234273.01,	233524.78,	232779.18,	232036.23,	231295.89,	230558.17,	229823.06,	229090.54,	228360.61,
227633.25,	226908.45,	226186.21,	225466.51,	224749.35,	224034.71,	223322.59,	222612.98,	221905.86,	221201.23,	220499.07,	219799.39,	219102.16,	218407.38,	217715.04,	217025.13,	216337.64,	215652.56,	214969.89,	214289.6,	213611.71,
212936.18,	212263.02,	211592.22,	210923.77,	210257.65,	209593.87,	208932.4,	208273.25,	207616.4,	206961.85,	206309.58,	205659.58,	205011.86,	204366.39,	203723.18,	203082.21,	202443.47,	201806.96,	201172.66,	200540.58,	199910.69,
199283,	198657.48,	198034.15,	197412.98,	196793.97,	196177.11,	195562.39,	194949.81,	194339.35,	193731.01,	193124.78,	192520.65,	191918.62,	191318.67,	190720.8,	190125,	189531.26,	188939.58,	188349.94,	187762.35,	187176.78,
186593.24,	186011.72,	185432.2,	184854.69,	184279.16,	183705.63,	183134.07,	182564.49,	181996.86,	181431.2,	180867.48,	180305.7,	179745.86,	179187.95,	178631.95,	178077.87,	177525.69,	176975.41,	176427.02,	175880.52,	175335.89,
174793.13,	174252.24,	173713.2,	173176.01,	172640.66,	172107.14,	171575.46,	171045.59,	170517.54,	169991.3,	169466.86,	168944.21,	168423.35,	167904.27,	167386.96,	166871.43,	166357.65,	165845.63,	165335.35,	164826.82,	164320.02,
163814.95,	163311.6,	162809.97,	162310.04,	161811.82,	161315.3,	160820.46,	160327.31,	159835.84,	159346.03,	158857.9,	158371.42,	157886.59,	157403.41,	156921.87,	156441.97,	155963.69,	155487.04,	155012,	154538.57,	154066.75,
153596.52,	153127.89,	152660.84,	152195.38,	151731.49,	151269.16,	150808.4,	150349.2,	149891.55,	149435.45,	148980.89,	148527.86,	148076.36,	147626.38,	147177.92,	146730.97,	146285.53,	145841.59,	145399.15,	144958.19,	144518.72,
144080.73,	143644.21,	143209.16,	142775.57,	142343.44,	141912.76,	141483.53,	141055.74,	140629.38,	140204.46,	139780.96,	139358.88,	138938.22,	138518.96,	138101.11,	137684.67,	137269.61,	136855.94,	136443.66,	136032.76,	135623.23,
135215.07,	134808.27,	134402.84,	133998.75,	133596.02,	133194.63,	132794.58,	132395.86,	131998.48,	131602.42,	131207.67,	130814.25,	130422.13,	130031.32,	129641.81,	129253.6,	128866.67,	128481.04,	128096.68,	127713.6,	127331.8,
126951.26,	126571.99,	126193.97,	125817.21,	125441.7,	125067.44,	124694.41,	124322.62,	123952.06,	123582.73,	123214.63,	122847.74,	122482.06,	122117.59,	121754.33,	121392.27,	121031.41,	120671.74,	120313.25,	119955.95,	119599.83,
119244.88,	118891.11,	118538.5,	118187.05,	117836.76,	117487.62,	117139.64,	116792.8,	116447.1,	116102.54,	115759.11,	115416.81,	115075.64,	114735.58,	114396.65,	114058.82,	113722.11,	113386.5,	113051.99,	112718.58,	112386.26,
112055.03,	111724.89,	111395.83,	111067.84,	110740.93,	110415.09,	110090.32,	109766.61,	109443.95,	109122.35,	108801.8,	108482.3,	108163.84,	107846.42,	107530.04,	107214.69,	106900.37,	106587.07,	106274.79,	105963.53,	105653.29,
105344.05,	105035.82,	104728.6,	104422.37,	104117.14,	103812.9,	103509.65,	103207.39,	102906.11,	102605.81,	102306.48,	102008.12,	101710.73,	101414.31,	101118.84,	100824.34,	100530.79,	100238.18,	99946.53,	99655.82,	99366.05,
99077.22,	98789.33,	98502.36,	98216.32,	97931.21,	97647.01,	97363.74,	97081.38,	96799.93,	96519.38,	96239.75,	95961.01,	95683.17,	95406.23,	95130.18,	94855.02,	94580.75,	94307.35,	94034.84,	93763.2,	93492.44,
93222.55,	92953.52,	92685.36,	92418.06,	92151.62,	91886.03,	91621.3,	91357.41,	91094.37,	90832.17,	90570.82,	90310.3,	90050.61,	89791.76,	89533.73,	89276.53,	89020.16,	88764.6,	88509.86,	88255.93,	88002.82,
87750.51,	87499.01,	87248.31,	86998.41,	86749.31,	86501,	86253.48,	86006.76,	85760.82,	85515.66,	85271.28,	85027.68,	84784.85,	84542.8,	84301.52,	84061,	83821.25,	83582.26,	83344.03,	83106.56,	82869.84,
82633.87,	82398.65,	82164.17,	81930.44,	81697.45,	81465.19,	81233.68,	81002.89,	80772.84,	80543.51,	80314.91,	80087.03,	79859.88,	79633.44,	79407.71,	79182.7,	78958.4,	78734.81,	78511.92,	78289.74,	78068.26,
77847.47,	77627.38,	77407.99,	77189.28,	76971.27,	76753.94,	76537.29,	76321.33,	76106.04,	75891.43,	75677.5,	75464.24,	75251.65,	75039.72,	74828.46,	74617.87,	74407.93,	74198.65,	73990.03,	73782.07,	73574.75,
73368.09,	73162.07,	72956.7,	72751.96,	72547.87,	72344.42,	72141.61,	71939.43,	71737.88,	71536.96,	71336.66,	71137,	70937.95,	70739.53,	70541.72,	70344.54,	70147.96,	69952,	69756.65,	69561.91,	69367.78,
69174.25,	68981.32,	68788.99,	68597.26,	68406.13,	68215.59,	68025.64,	67836.28,	67647.51,	67459.32,	67271.72,	67084.71,	66898.27,	66712.41,	66527.12,	66342.41,	66158.27,	65974.71,	65791.71,	65609.27,	65427.4,
65246.1,	65065.35,	64885.17,	64705.53,	64526.46,	64347.94,	64169.97,	63992.54,	63815.67,	63639.34,	63463.55,	63288.31,	63113.61,	62939.44,	62765.81,	62592.72,	62420.16,	62248.13,	62076.62,	61905.65,	61735.2,
61565.28,	61395.88,	61226.99,	61058.63,	60890.78,	60723.45,	60556.63,	60390.32,	60224.53,	60059.24,	59894.46,	59730.18,	59566.4,	59403.13,	59240.36,	59078.08,	58916.3,	58755.02,	58594.23,	58433.93,	58274.11,
58114.79,	57955.96,	57797.6,	57639.74,	57482.35,	57325.44,	57169.01,	57013.06,	56857.59,	56702.58,	56548.05,	56393.99,	56240.4,	56087.27,	55934.61,	55782.42,	55630.69,	55479.41,	55328.6,	55178.25,	55028.35,
54878.91,	54729.92,	54581.38,	54433.29,	54285.65,	54138.46,	53991.72,	53845.42,	53699.56,	53554.14,	53409.17,	53264.63,	53120.53,	52976.86,	52833.63,	52690.83,	52548.47,	52406.53,	52265.02,	52123.94,	51983.28,
51843.05,	51703.24,	51563.85,	51424.88,	51286.33,	51148.2,	51010.49,	50873.18,	50736.29,	50599.82,	50463.75,	50328.09,	50192.84,	50058,	49923.56,	49789.52,	49655.89,	49522.66,	49389.83,	49257.39,	49125.35,
48993.71,	48862.47,	48731.61,	48601.15,	48471.08,	48341.39,	48212.1,	48083.19,	47954.67,	47826.53,	47698.77,	47571.4,	47444.41,	47317.79,	47191.56,	47065.7,	46940.21,	46815.1,	46690.36,	46566,	46442,
46318.38,	46195.12,	46072.23,	45949.7,	45827.54,	45705.74,	45584.31,	45463.23,	45342.52,	45222.16,	45102.16,	44982.52,	44863.23,	44744.3,	44625.72,	44507.49,	44389.61,	44272.08,	44154.89,	44038.06,	43921.57,
43805.43,	43689.63,	43574.17,	43459.05,	43344.28,	43229.84,	43115.74,	43001.98,	42888.55,	42775.46,	42662.7,	42550.28,	42438.19,	42326.42,	42214.99,	42103.88,	41993.11,	41882.65,	41772.53,	41662.73,	41553.25,
41444.09,	41335.25,	41226.74,	41118.54,	41010.66,	40903.1,	40795.85,	40688.92,	40582.3,	40476,	40370,	40264.32,	40158.95,	40053.88,	39949.12,	39844.67,	39740.53,	39636.69,	39533.15,	39429.92,	39326.99,
39224.36,	39122.03,	39020,	38918.27,	38816.83,	38715.69,	38614.85,	38514.29,	38414.04,	38314.07,	38214.4,	38115.02,	38015.92,	37917.12,	37818.6,	37720.37,	37622.42,	37524.76,	37427.39,	37330.29,	37233.48,
37136.95,	37040.7,	36944.73,	36849.04,	36753.63,	36658.49,	36563.63,	36469.04,	36374.73,	36280.69,	36186.93,	36093.43,	36000.21,	35907.25,	35814.57,	35722.15,	35630,	35538.12,	35446.5,	35355.14,	35264.06,
35173.23,	35082.66,	34992.36,	34902.32,	34812.54,	34723.01,	34633.75,	34544.74,	34455.99,	34366.5,	34278.3,	34190.36,	34102.68,	34015.24,	33928.06,	33841.13,	33754.45,	33668.02,	33581.83,	33495.9,	33410.21,
33324.77,	33239.57,	33154.62,	33069.91,	32985.44,	32901.22,	32817.24,	32733.5,	32650,	32566.74,	32483.72,	32400.93,	32318.38,	32236.07,	32154,	32072.16,	31990.55,	31909.18,	31828.03,	31747.12,	31666.45,
31586,	31505.78,	31425.79,	31346.03,	31266.5,	31187.19,	31108.11,	31029.25,	30950.62,	30872.22,	30794.03,	30716.07,	30638.33,	30560.81,	30483.52,	30406.44,	30329.58,	30252.94,	30176.52,	30100.31,	30024.32,
29948.55,	29872.99,	29797.64,	29722.51,	29647.59,	29572.89,	29498.39,	29424.11,	29350.04,	29276.18,	29202.52,	29129.08,	29055.84,	28982.81,	28909.98,	28837.36,	28764.95,	28692.74,	28620.73,	28548.93,	28477.33,
28405.93,	28334.74,	28263.74,	28192.94,	28122.35,	28051.95,	27981.75,	27911.75,	27841.94,	27772.34,	27702.92,	27633.7,	27564.68,	27495.85,	27427.22,	27358.77,	27290.52,	27222.46,	27154.59,	27086.91,	27019.43,
26952.13,	26885.02,	26818.09,	26751.36,	26684.81,	26618.45,	26552.27,	26486.28,	26420.47,	26354.85,	26289.41,	26224.15,	26159.08,	26094.18,	26029.47,	25964.94,	25900.59,	25836.42,	25772.42,	25708.61,	25644.97,
25581.51,	25518.23,	25455.13,	25392.19,	25329.44,	25266.86,	25204.45,	25142.22,	25080.16,	25018.27,	24956.55,	24895.01,	24833.63,	24772.43,	24711.39,	24650.53,	24589.83,	24529.31,	24468.95,	24408.75,	24348.73,
24288.87,	24229.17,	24169.64,	24110.28,	24051.08,	23992.04,	23933.17,	23874.46,	23815.91,	23757.52,	23699.3,	23641.23,	23583.33,	23525.58,	23468,	23410.57,	23353.3,	23296.19,	23239.23,	23182.44,	23125.8,
23069.31,	23012.98,	22956.81,	22900.79,	22844.92,	22789.21,	22733.65,	22678.24,	22622.99,	22567.88,	22512.93,	22458.13,	22403.48,	22348.98,	22294.63,	22240.42,	22186.37,	22132.46,	22078.7,	22025.09,	21971.63,
21918.31,	21865.13,	21812.11,	21759.22,	21706.48,	21653.89,	21601.44,	21549.13,	21496.97,	21444.94,	21393.06,	21341.32,	21289.73,	21238.27,	21186.95,	21135.77,	21084.73,	21033.83,	20983.07,	20932.45,	20881.97,
20831.62,	20781.41,	20731.33,	20681.39,	20631.59,	20581.92,	20532.39,	20482.99,	20433.72,	20384.59,	20335.59,	20286.73,	20238,	20189.39,	20140.93,	20092.59,	20044.38,	19996.3,	19948.36,	19900.54,	19852.85,
19805.29,	19757.86,	19710.56,	19663.38,	19616.33,	19569.41,	19522.62,	19475.95,	19429.41,	19382.99,	19336.7,	19290.53,	19244.49,	19198.57,	19152.78,	19107.1,	19061.56,	19016.13,	18970.82,	18925.64,	18880.58,
18835.64,	18790.82,	18746.12,	18701.54,	18657.08,	18612.74,	18568.52,	18524.41,	18480.43,	18436.56,	18392.81,	18349.18,	18305.66,	18262.26,	18218.98,	18175.81,	18132.76,	18089.82,	18047,	18004.29,	17961.7,
17919.22,	17876.85,	17834.6,	17792.46,	17750.43,	17708.51,	17666.71,	17625.01,	17583.43,	17541.96,	17500.6,	17459.35,	17418.2,	17377.17,	17336.25,	17295.43,	17254.73,	17214.13,	17173.64,	17133.26,	17092.98,
17052.82,	17012.75,	16972.8,	16932.95,	16893.2,	16853.57,	16814.03,	16774.6,	16735.28,	16696.06,	16656.94,	16617.93,	16579.02,	16540.21,	16501.51,	16462.9,	16424.4,	16386.01,	16347.71,	16309.51,	16271.42,
16233.42,	16195.53,	16157.73,	16120.04,	16082.44,	16044.94,	16007.55,	15970.25,	15933.04,	15895.94,	15858.94,	15822.03,	15785.21,	15748.5,	15711.88,	15675.36,	15638.93,	15602.6,	15566.37,	15530.23,	15494.18,
15458.23,	15422.37,	15386.61,	15350.94,	15315.37,	15279.88,	15244.49,	15209.2,	15173.99,	15138.88,	15103.86,	15068.93,	15034.09,	14999.34,	14964.69,	14930.12,	14895.65,	14861.26,	14826.97,	14792.76,	14758.64,
14724.61,	14690.67,	14656.82,	14623.06,	14589.38,	14555.8,	14522.3,	14488.88,	14455.56,	14422.32,	14389.17,	14356.1,	14323.12,	14290.22,	14257.41,	14224.69,	14192.05,	14159.49,	14127.02,	14094.64,	14062.33,
14030.12,	13997.98,	13965.93,	13933.96,	13902.07,	13870.27,	13838.55,	13806.91,	13775.35,	13743.87,	13712.48,	13681.17,	13649.93,	13618.78,	13587.71,	13556.72,	13525.81,	13494.97,	13464.22,	13433.55,	13402.95,
13372.44,	13342,	13311.64,	13281.36,	13251.16,	13221.04,	13190.99,	13161.02,	13131.13,	13101.31,	13071.57,	13041.91,	13012.32,	12982.81,	12953.37,	12924.01,	12894.73,	12865.52,	12836.38,	12807.33,	12778.34,
12749.43,	12720.59,	12691.83,	12663.14,	12634.52,	12605.98,	12577.51,	12549.11,	12520.79,	12492.53,	12464.35,	12436.24,	12408.21,	12380.24,	12352.35,	12324.52,	12296.77,	12269.09,	12241.48,	12213.94,	12186.47,
12159.07,	12131.74,	12104.48,	12077.29,	12050.17,	12023.11,	11996.13,	11969.21,	11942.36,	11915.58,	11888.87,	11862.23,	11835.65,	11809.14,	11782.7,	11756.33,	11730.02,	11703.78,	11677.6,	11651.5,	11625.45,
11599.48,	11573.57,	11547.72,	11521.94,	11496.23,	11470.58,	11445,	11419.48,	11394.02,	11368.63,	11343.3,	11318.04,	11292.84,	11267.7,	11242.63,	11217.62,	11192.67,	11167.79,	11142.97,	11118.21,	11093.52,
11068.88,	11044.31,	11019.8,	10995.35,	10970.96,	10946.64,	10922.37,	10898.17,	10874.03,	10849.94,	10825.92,	10801.96,	10778.06,	10754.22,	10730.44,	10706.71,	10683.05,	10659.45,	10635.9,	10612.42,	10588.99,
10565.62,	10542.31,	10519.06,	10495.87,	10472.73,	10449.66,	10426.64,	10403.67,	10380.77,	10357.92,	10335.13,	10312.4,	10289.72,	10267.1,	10244.53,	10222.02,	10199.57,	10177.18,	10154.84,	10132.55,	10110.32,
10088.15,	10066.03,	10043.96,	10021.95,	10000,	9978.1,	9956.25,	9934.46,	9912.73,	9891.04,	9869.41,	9847.84,	9826.31,	9804.85,	9783.43,	9762.07,	9740.76,	9719.5,	9698.29,	9677.14,	9656.04,
9634.99,	9614,	9593.06,	9572.16,	9551.32,	9530.53,	9509.8,	9489.11,	9468.48,	9447.89,	9427.36,	9406.87,	9386.44,	9366.06,	9345.73,	9325.45,	9305.21,	9285.03,	9264.9,	9244.82,	9224.78,
9204.8,	9184.86,	9164.98,	9145.14,	9125.35,	9105.61,	9085.92,	9066.28,	9046.68,	9027.13,	9007.64,	8988.18,	8968.78,	8949.42,	8930.12,	8910.85,	8891.64,	8872.47,	8853.35,	8834.28,	8815.25,
8796.27,	8777.34,	8758.45,	8739.61,	8720.81,	8702.06,	8683.36,	8664.7,	8646.09,	8627.52,	8609,	8590.52,	8572.09,	8553.7,	8535.36,	8517.06,	8498.81,	8480.6,	8462.44,	8444.32,	8426.24,
8408.21,	8390.22,	8372.28,	8354.38,	8336.52,	8318.7,	8300.93,	8283.21,	8265.52,	8247.88,	8230.28,	8212.72,	8195.21,	8177.74,	8160.31,	8142.92,	8125.58,	8108.27,	8091.01,	8073.79,	8056.61,
8039.48,	8022.38,	8005.33,	7988.32,	7971.35,	7954.42,	7937.53,	7920.68,	7903.87,	7887.1,	7870.37,	7853.69,	7837.04,	7820.43,	7803.87,	7787.34,	7770.85,	7754.41,	7738,	7721.63,	7705.3,
7689.01,	7672.76,	7656.55,	7640.38,	7624.24,	7608.15,	7592.09,	7576.07,	7560.09,	7544.15,	7528.25,	7512.39,	7496.56,	7480.77,	7465.02,	7449.31,	7433.63,	7417.99,	7402.39,	7386.83,	7371.3,
7355.81,	7340.36,	7324.94,	7309.56,	7294.22,	7278.92,	7263.65,	7248.42,	7233.22,	7218.06,	7202.94,	7187.85,	7172.8,	7157.78,	7142.8,	7127.86,	7112.95,	7098.07,	7083.24,	7068.43,	7053.67,
7038.93,	7024.24,	7009.57,	6994.95,	6980.35,	6965.79,	6951.27,	6936.78,	6922.33,	6907.9,	6893.52,	6879.17,	6864.85,	6850.56,	6836.31,	6822.09,	6807.91,	6793.76,	6779.64,	6765.56,	6751.51,
6737.49,	6723.51,	6709.56,	6695.64,	6681.76,	6667.91,	6654.09,	6640.3,	6626.55,	6612.82,	6599.14,	6585.48,	6571.85,	6558.26,	6544.7,	6531.17,	6517.67,	6504.21,	6490.77,	6477.37,	6464,
6450.66,	6437.35,	6424.08,	6410.83,	6397.62,	6384.43,	6371.28,	6358.16,	6345.07,	6332.01,	6318.98,	6305.98,	6293.01,	6280.07,	6267.17,	6254.29,	6241.44,	6228.62,	6215.83,	6203.08,	6190.35,
6177.65,	6164.98,	6152.34,	6139.73,	6127.15,	6114.6,	6102.08,	6089.59,	6077.13,	6064.69,	6052.29,	6039.91,	6027.56,	6015.25,	6002.96,	5990.7,	5978.46,	5966.26,	5954.08,	5941.93,	5929.82,
5917.72,	5905.66,	5893.63,	5881.62,	5869.64,	5857.69,	5845.76,	5833.87,	5822,	5810.16,	5798.35,	5786.56,	5774.8,	5763.07,	5751.36,	5739.69,	5728.04,	5716.41,	5704.82,	5693.25,	5681.7,
5670.19,	5658.7,	5647.23,	5635.8,	5624.39,	5613,	5601.65,	5590.31,	5579.01,	5567.73,	5556.48,	5545.25,	5534.05,	5522.87,	5511.72,	5500.6,	5489.5,	5478.42,	5467.38,	5456.35,	5445.36,
5434.38,	5423.44,	5412.52,	5401.62,	5390.75,	5379.9,	5369.08,	5358.28,	5347.51,	5336.76,	5326.04,	5315.34,	5304.67,	5294.02,	5283.4,	5272.8,	5262.22,	5251.67,	5241.14,	5230.64,	5220.16,
5209.7,	5199.27,	5188.86,	5178.48,	5168.12,	5157.78,	5147.46,	5137.17,	5126.91,	5116.67,	5106.45,	5096.25,	5086.08,	5075.93,	5065.8,	5055.7,	5045.61,	5035.56,	5025.52,	5015.51,	5005.52,
4995.55,	4985.61,	4975.69,	4965.79,	4955.91,	4946.06,	4936.23,	4926.42,	4916.63,	4906.86,	4897.12,	4887.4,	4877.7,	4868.02,	4858.37,	4848.74,	4839.12,	4829.54,	4819.97,	4810.42,	4800.9,
4791.39,	4781.91,	4772.45,	4763.01,	4753.6,	4744.2,	4734.82,	4725.47,	4716.14,	4706.83,	4697.53,	4688.26,	4679.02,	4669.79,	4660.58,	4651.39,	4642.23,	4633.08,	4623.96,	4614.85,	4605.77,
4596.71,	4587.66,	4578.64,	4569.64,	4560.66,	4551.69,	4542.75,	4533.83,	4524.93,	4516.05,	4507.18,	4498.34,	4489.52,	4480.72,	4471.93,	4463.17,	4454.43,	4445.7,	4437,	4428.31,	4419.65,
4411,	4402.37,	4393.77,	4385.18,	4376.61,	4368.06,	4359.53,	4351.02,	4342.52,	4334.05,	4325.59,	4317.16,	4308.74,	4300.34,	4291.96,	4283.6,	4275.26,	4266.93,	4258.63,	4250.34,	4242.07,
4233.82,	4225.59,	4217.38,	4209.18,	4201,	4192.84,	4184.7,	4176.58,	4168.47,	4160.39,	4152.32,	4144.27,	4136.23,	4128.22,	4120.22,	4112.24,	4104.28,	4096.33,	4088.41,	4080.5,	4072.6,
4064.73,	4056.87,	4049.03,	4041.21,	4033.4,	4025.62,	4017.85,	4010.09,	4002.36,	3994.64,	3986.93,	3979.25,	3971.58,	3963.93,	3956.29,	3948.67,	3941.07,	3933.49,	3925.92,	3918.37,	3910.84,
3903.32,	3895.82,	3888.33,	3880.86,	3873.41,	3865.97,	3858.56,	3851.15,	3843.77,	3836.39,	3829.04,	3821.7,	3814.38,	3807.07,	3799.78,	3792.51,	3785.25,	3778.01,	3770.78,	3763.57,	3756.38,
3749.2,	3742.03,	3734.88,	3727.75,	3720.64,	3713.53,	3706.45,	3699.38,	3692.32,	3685.28,	3678.26,	3671.25,	3664.26,	3657.28,	3650.32,	3643.37,	3636.44,	3629.52,	3622.62,	3615.73,	3608.86,
3602,	3595.16,	3588.33,	3581.52,	3574.72,	3567.94,	3561.17,	3554.41,	3547.67,	3540.95,	3534.24,	3527.54,	3520.86,	3514.2,	3507.54,	3500.91,	3494.28,	3487.68,	3481.08,	3474.5,	3467.93,
3461.38,	3454.85,	3448.32,	3441.81,	3435.32,	3428.84,	3422.37,	3415.92,	3409.48,	3403.05,	3396.64,	3390.24,	3383.86,	3377.49,	3371.13,	3364.79,	3358.46,	3352.14,	3345.84,	3339.55,	3333.28,
3327.02,	3320.77,	3314.54,	3308.32,	3302.11,	3295.91,	3289.73,	3283.57,	3277.41,	3271.27,	3265.14,	3259.03,	3252.93,	3246.84,	3240.76,	3234.7,	3228.65,	3222.61,	3216.59,	3210.58,	3204.58,
3198.6,	3192.62,	3186.66,	3180.72,	3174.78,	3168.86,	3162.95,	3157.06,	3151.18,	3145.3,	3139.45,	3133.6,	3127.77,	3121.95,	3116.14,	3110.34,	3104.56,	3098.79,	3093.03,	3087.28,	3081.55,
3075.82,	3070.11,	3064.42,	3058.73,	3053.06,	3047.4,	3041.75,	3036.11,	3030.48,	3024.87,	3019.27,	3013.68,	3008.1,	3002.53,	2996.98,	2991.44,	2985.91,	2980.39,	2974.88,	2969.38,	2963.9,
2958.43,	2952.97,	2947.52,	2942.08,	2936.65,	2931.24,	2925.83,	2920.44,	2915.06,	2909.69,	2904.34,	2898.99,	2893.65,	2888.33,	2883.02,	2877.72,	2872.43,	2867.15,	2861.88,	2856.62,	2851.38,
2846.14,	2840.92,	2835.7,	2830.5,	2825.31,	2820.13,	2814.96,	2809.81,	2804.66,	2799.52,	2794.4,	2789.28,	2784.18,	2779.08,	2774,	2768.93,	2763.87,	2758.82,	2753.78,	2748.75,	2743.73,
2738.72,	2733.72,	2728.73,	2723.76,	2718.79,	2713.83,	2708.89,	2703.95,	2699.03,	2694.11,	2689.21,	2684.31,	2679.43,	2674.55,	2669.69,	2664.84,	2659.99,	2655.16,	2650.34,	2645.52,	2640.72,
2635.93,	2631.14,	2626.37,	2621.61,	2616.85,	2612.11,	2607.38,	2602.65,	2597.94,	2593.23,	2588.54,	2583.85,	2579.18,	2574.51,	2569.86,	2565.21,	2560.58,	2555.95,	2551.33,	2546.73,	2542.13,
2537.54,	2532.96,	2528.39,	2523.83,	2519.28,	2514.74,	2510.21,	2505.69,	2501.17,	2496.67,	2492.18,	2487.69,	2483.22,	2478.75,	2474.29,	2469.85,	2465.41,	2460.98,	2456.56,	2452.15,	2447.74,
2443.35,	2438.97,	2434.59,	2430.23,	2425.87,	2421.52,	2417.18,	2412.85,	2408.53,	2404.22,	2399.91,	2395.62,	2391.33,	2387.06,	2382.79,	2378.53,	2374.28,	2370.04,	2365.8,	2361.58,	2357.36,
2353.16,	2348.96,	2344.77,	2340.59,	2336.41,	2332.25,	2328.09,	2323.95,	2319.81,	2315.68,	2311.56,	2307.44,	2303.34,	2299.24,	2295.15,	2291.08,	2287,	2282.94,	2278.89,	2274.84,	2270.8,
2266.77,	2262.75,	2258.74,	2254.73,	2250.73,	2246.74,	2242.76,	2238.79,	2234.83,	2230.87,	2226.92,	2222.98,	2219.05,	2215.12,	2211.21,	2207.3,	2203.4,	2199.51,	2195.62,	2191.74,	2187.88,
2184.01,	2180.16,	2176.32,	2172.48,	2168.65,	2164.83,	2161.01,	2157.21,	2153.41,	2149.62,	2145.83,	2142.06,	2138.29,	2134.53,	2130.77,	2127.03,	2123.29,	2119.56,	2115.84,	2112.12,	2108.42,
2104.72,	2101.02,	2097.34,	2093.66,	2089.99,	2086.33,	2082.67,	2079.02,	2075.38,	2071.75,	2068.12,	2064.5,	2060.89,	2057.29,	2053.69,	2050.1,	2046.52,	2042.94,	2039.37,	2035.81,	2032.26,
2028.71,	2025.17,	2021.64,	2018.12,	2014.6,	2011.09,	2007.58,	2004.08,	2000.59,	1997.11,	1993.64,	1990.17,	1986.7,	1983.25,	1979.8,	1976.36,	1972.92,	1969.5,	1966.08,	1962.66,	1959.26,
1955.85,	1952.46,	1949.07,	1945.69,	1942.32,	1938.95,	1935.59,	1932.24,	1928.9,	1925.56,	1922.22,	1918.9,	1915.58,	1912.26,	1908.96,	1905.66,	1902.36,	1899.08,	1895.8,	1892.52,	1889.26,
1885.99,	1882.74,	1879.49,	1876.25,	1873.02,	1869.79,	1866.57,	1863.35,	1860.14,	1856.94,	1853.74,	1850.55,	1847.37,	1844.19,	1841.02,	1837.85,	1834.7,	1831.54,	1828.4,	1825.26,	1822.12,
1819,	1815.87,	1812.76,	1809.65,	1806.55,	1803.45,	1800.36,	1797.28,	1794.2,	1791.13,	1788.06,	1785,	1781.94,	1778.9,	1775.85,	1772.82,	1769.79,	1766.76,	1763.75,	1760.73,	1757.73,
1754.73,	1751.73,	1748.74,	1745.76,	1742.78,	1739.81,	1736.85,	1733.89,	1730.94,	1727.99,	1725.05,	1722.11,	1719.18,	1716.25,	1713.34,	1710.42,	1707.52,	1704.61,	1701.72,	1698.83,	1695.94,
1693.06,	1690.19,	1687.32,	1684.46,	1681.6,	1678.75,	1675.91,	1673.07,	1670.23,	1667.4,	1664.58,	1661.76,	1658.95,	1656.14,	1653.34,	1650.55,	1647.76,	1644.97,	1642.19,	1639.42,	1636.65,
1633.89,	1631.13,	1628.38,	1625.63,	1622.89,	1620.15,	1617.42,	1614.69,	1611.97,	1609.26,	1606.55,	1603.84,	1601.15,	1598.45,	1595.76,	1593.08,	1590.4,	1587.73,	1585.06,	1582.4,	1579.74,
1577.09,	1574.44,	1571.8,	1569.16,	1566.53,	1563.9,	1561.28,	1558.66,	1556.05,	1553.44,	1550.84,	1548.25,	1545.65,	1543.07,	1540.49,	1537.91,	1535.34,	1532.77,	1530.21,	1527.65,	1525.1,
1522.55,	1520.01,	1517.47,	1514.94,	1512.42,	1509.89,	1507.38,	1504.86,	1502.35,	1499.85,	1497.35,	1494.86,	1492.37,	1489.89,	1487.41,	1484.93,	1482.46,	1480,	1477.53,	1475.07,	1472.62,
1470.16,	1467.72,	1465.27,	1462.84,	1460.4,	1457.98,	1455.55,	1453.13,	1450.72,	1448.31,	1445.91,	1443.51,	1441.11,	1438.72,	1436.33,	1433.95,	1431.58,	1429.2,	1426.84,	1424.47,	1422.11,
1419.76,	1417.41,	1415.07,	1412.73,	1410.39,	1408.06,	1405.73,	1403.41,	1401.09,	1398.78,	1396.47,	1394.17,	1391.87,	1389.57,	1387.28,	1384.99,	1382.71,	1380.43,	1378.16,	1375.89,	1373.63,
1371.36,	1369.11,	1366.86,	1364.61,	1362.37,	1360.13,	1357.89,	1355.66,	1353.44,	1351.22,	1349,	1346.78,	1344.58,	1342.37,	1340.17,	1337.97,	1335.78,	1333.59,	1331.41,	1329.23,	1327.06,
1324.89,	1322.72,	1320.56,	1318.4,	1316.24,	1314.09,	1311.95,	1309.8,	1307.67,	1305.53,	1303.4,	1301.28,	1299.15,	1297.04,	1294.92,	1292.81,	1290.71,	1288.6,	1286.51,	1284.41,	1282.32,
1280.24,	1278.16,	1276.08,	1274,	1271.93,	1269.87,	1267.81,	1265.75,	1263.69,	1261.64,	1259.6,	1257.55,	1255.51,	1253.48,	1251.45,	1249.42,	1247.4,	1245.38,	1243.36,	1241.35,	1239.34,
1237.34,	1235.34,	1233.34,	1231.35,	1229.36,	1227.37,	1225.39,	1223.41,	1221.44,	1219.47,	1217.5,	1215.54,	1213.58,	1211.62,	1209.67,	1207.72,	1205.78,	1203.84,	1201.9,	1199.97,	1198.04,
1196.11,	1194.19,	1192.27,	1190.35,	1188.44,	1186.53,	1184.63,	1182.73,	1180.83,	1178.94,	1177.04,	1175.16,	1173.27,	1171.39,	1169.52,	1167.65,	1165.78,	1163.91,	1162.05,	1160.19,	1158.33,
1156.48,	1154.63,	1152.79,	1150.95,	1149.11,	1147.27,	1145.44,	1143.61,	1141.79,	1139.97,	1138.15,	1136.34,	1134.53,	1132.72,	1130.92,	1129.11,	1127.32,	1125.52,	1123.73,	1121.95,	1120.16,
1118.38,	1116.6,	1114.83,	1113.06,	1111.29,	1109.53,	1107.77,	1106.01,	1104.25,	1102.5,	1100.75,	1099.01,	1097.27,	1095.53,	1093.8,	1092.06,	1090.34,	1088.61,	1086.89,	1085.17,	1083.45,
1081.74,	1080.03,	1078.32,	1076.62,	1074.92,	1073.23,	1071.53,	1069.84,	1068.15,	1066.47,	1064.79,	1063.11,	1061.43,	1059.76,	1058.09,	1056.43,	1054.77,	1053.11,	1051.45,	1049.8,	1048.15,
1046.5,	1044.85,	1043.21,	1041.57,	1039.94,	1038.31,	1036.68,	1035.05,	1033.43,	1031.81,	1030.19,	1028.58,	1026.96,	1025.36,	1023.75,	1022.15,	1020.55,	1018.95,	1017.36,	1015.77,	1014.18,
1012.59,	1011.01,	1009.43,	1007.86,	1006.28,	1004.71,	1003.14,	1001.58,	1000.02,	998.46,	996.9,	995.35,	993.8,	992.25,	990.7,	989.16,	987.62,	986.09,	984.55,	983.02,	981.49,
979.97,	978.45,	976.93,	975.41,	973.89,	972.38,	970.87,	969.37,	967.87,	966.36,	964.87,	963.37,	961.88,	960.39,	958.9,	957.42,	955.94,	954.46,	952.98,	951.51,	950.04,
948.57,	947.1,	945.64,	944.18,	942.72,	941.27,	939.82,	938.37,	936.92,	935.47,	934.03,	932.59,	931.16,	929.72,	928.29,	926.86,	925.44,	924.01,	922.59,	921.17,	919.76,
918.34,	916.93,	915.52,	914.12,	912.71,	911.31,	909.91,	908.52,	907.13,	905.73,	904.35,	902.96,	901.58,	900.2,	898.82,	897.44,	896.07,	894.7,	893.33,	891.96,	890.6,
889.24,	887.88,	886.52,	885.17,	883.82,	882.47,	881.12,	879.78,	878.44,	877.1,	875.76,	874.43,	873.09,	871.76,	870.44,	869.11,	867.79,	866.47,	865.15,	863.84,	862.52,
861.21,	859.9,	858.6,	857.29,	855.99,	854.69,	853.4,	852.1,	850.81,	849.52,	848.23,	846.95,	845.66,	844.38,	843.1,	841.83,	840.55,	839.28,	838.01,	836.74,	835.48,
834.22,	832.95,	831.7,	830.44,	829.19,	827.93,	826.69,	825.44,	824.19,	822.95,	821.71,	820.47,	819.24,	818,	816.77,	815.54,	814.31,	813.09,	811.86,	810.64,	809.42,
808.21,	806.99,	805.78,	804.57,	803.36,	802.16,	800.95,	799.75,	798.55,	797.35,	796.16,	794.96,	793.77,	792.58,	791.4,	790.21,	789.03,	787.85,	786.67,	785.49,	784.32,
783.15,	781.98,	780.81,	779.64,	778.48,	777.31,	776.15,	775,	773.84,	772.69,	771.53,	770.38,	769.23,	768.09,	766.94,	765.8,	764.66,	763.52,	762.39,	761.25,	760.12,
758.99,	757.86,	756.74,	755.61,	754.49,	753.37,	752.25,	751.14,	750.02,	748.91,	747.8,	746.69,	745.58,	744.48,	743.38,	742.27,	741.18,	740.08,	738.98,	737.89,	736.8,
735.71,	734.62,	733.54,	732.45,	731.37,	730.29,	729.21,	728.14,	727.06,	725.99,	724.92,	723.85,	722.78,	721.72,	720.65,	719.59,	718.53,	717.47,	716.42,	715.36,	714.31,
713.26,	712.21,	711.17,	710.12,	709.08,	708.04,	707,	705.96,	704.92,	703.89,	702.85,	701.82,	700.79,	699.77,	698.74,	697.72,	696.7,	695.68,	694.66,	693.64,	692.63,
691.61,	690.6,	689.59,	688.58,	687.58,	686.57,	685.57,	684.57,	683.57,	682.57,	681.58,	680.58,	679.59,	678.6,	677.61,	676.62,	675.64,	674.65,	673.67,	672.69,	671.71,
670.73,	669.76,	668.79,	667.81,	666.84,	665.87,	664.91,	663.94,	662.98,	662.01,	661.05,	660.09,	659.14,	658.18,	657.23,	656.27,	655.32,	654.37,	653.43,	652.48,	651.54,
650.59,	649.65,	648.71,	647.77,	646.84,	645.9,	644.97,	644.04,	643.11,	642.18,	641.25,	640.33,	639.4,	638.48,	637.56,	636.64,	635.72,	634.81,	633.89,	632.98,	632.07,
631.16,	630.25,	629.35,	628.44,	627.54,	626.63,	625.73,	624.83,	623.94,	623.04,	622.15,	621.25,	620.36,	619.47,	618.58,	617.7,	616.81,	615.93,	615.05,	614.16,	613.28,
612.41,	611.53,	610.66,	609.78,	608.91,	608.04,	607.17,	606.3,	605.44,	604.57,	603.71,	602.85,	601.98,	601.13,	600.27,	599.41,	598.56,	597.7,	596.85,	596,	595.15,
594.31,	593.46,	592.61,	591.77,	590.93,	590.09,	589.25,	588.41,	587.58,	586.74,	585.91,	585.08,	584.25,	583.42,	582.59,	581.76,	580.94,	580.11,	579.29,	578.47,	577.65,
576.83,	576.01,	575.2,	574.38,	573.57,	572.76,	571.95,	571.14,	570.33,	569.53,	568.72,	567.92,	567.12,	566.32,	565.52,	564.72,	563.92,	563.13,	562.33,	561.54,	560.75,
559.96,	559.17,	558.38,	557.6,	556.81,	556.03,	555.25,	554.47,	553.69,	552.91,	552.13,	551.35,	550.58,	549.81,	549.03,	548.26,	547.49,	546.73,	545.96,	545.19,	544.43,
543.67,	542.9,	542.14,	541.38,	540.63,	539.87,	539.11,	538.36,	537.61,	536.85,	536.1,	535.35,	534.61,	533.86,	533.11,	532.37,	531.63,	530.88,	530.14,	529.4,	528.67,
527.93,	527.19,	526.46,	525.72,	524.99,	524.26,	523.53,	522.8,	522.08,	521.35,	520.62,	519.9,	519.18,	518.46,	517.74,	517.02,	516.3,	515.58,	514.87,	514.15,	513.44,
512.73,	512.01,	511.31,	510.6,	509.89,	509.18,	508.48,	507.77,	507.07,	506.37,	505.67,	504.97,	504.27,	503.57,	502.88,	502.18,	501.49,	500.8,	500.1,	499.41,	498.73,
498.04,	497.35,	496.66,	495.98,	495.3,	494.61,	493.93,	493.25,	492.57,	491.89,	491.22,	490.54,	489.87,	489.19,	488.52,	487.85,	487.18,	486.51,	485.84,	485.17,	484.51,
483.84,	483.18,	482.52,	481.85,	481.19,	480.53,	479.87,	479.22,	478.56,	477.9,	477.25,	476.6,	475.94,	475.29,	474.64,	473.99,	473.35,	472.7,	472.05,	471.41,	470.76,
470.12,	469.48,	468.84,	468.2,	467.56,	466.92,	466.29,	465.65,	465.02,	464.38,	463.75,	463.12,	462.49,	461.86,	461.23,	460.6,	459.98,	459.35,	458.73,	458.1,	457.48,
456.86,	456.24,	455.62,	455,	454.38,	453.77,	453.15,	452.54,	451.92,	451.31,	450.7,	450.09,	449.48,	448.87,	448.26,	447.66,	447.05,	446.45,	445.84,	445.24,	444.64,
444.04,	443.44,	442.84,	442.24,	441.64,	441.05,	440.45,	439.86,	439.26,	438.67,	438.08,	437.49,	436.9,	436.31,	435.72,	435.14,	434.55,	433.97,	433.38,	432.8,	432.22,
431.64,	431.06,	430.48,	429.9,	429.32,	428.74,	428.17,	427.59,	427.02,	426.45,	425.88,	425.3,	424.73,	424.17,	423.6,	423.03,	422.46,	421.9,	421.33,	420.77,	420.21,
419.64,	419.08,	418.52,	417.96,	417.4,	416.85,	416.29,	415.73,	415.18,	414.62,	414.07,	413.52,	412.97,	412.42,	411.87,	411.32,	410.77,	410.22,	409.68,	409.13,	408.59,
408.04,	407.5,	406.96,	406.42,	405.88,	405.34,	404.8,	404.26,	403.72,	403.19,	402.65,	402.12,	401.58,	401.05,	400.52,	399.99,	399.46,	398.93,	398.4,	397.87,	397.35,
396.82,	396.29,	395.77,	395.25,	394.72,	394.2,	393.68,	393.16,	392.64,	392.12,	391.6,	391.09,	390.57,	390.05,	389.54,	389.03,	388.51,	388,	387.49,	386.98,	386.47,
385.96,	385.45,	384.94,	384.44,	383.93,	383.43,	382.92,	382.42,	381.91,	381.41,	380.91,	380.41,	379.91,	379.41,	378.91,	378.42,	377.92,	377.42,	376.93,	376.44,	375.94,
375.45,	374.96,	374.47,	373.98,	373.49,	373,	372.51,	372.02,	371.53,	371.05,	370.56,	370.08,	369.6,	369.11,	368.63,	368.15,	367.67,	367.19,	366.71,	366.23,	365.75,
365.28,	364.8,	364.32,	363.85,	363.38,	362.9,	362.43,	361.96,	361.49,	361.02,	360.55,	360.08,	359.61,	359.14,	358.68,	358.21,	357.74,	357.28,	356.82,	356.35,	355.89,
355.43,	354.97,	354.51,	354.05,	353.59,	353.13,	352.67,	352.22,	351.76,	351.3,	350.85,	350.4,	349.94,	349.49,	349.04,	348.59,	348.14,	347.69,	347.24,	346.79,	346.34,
345.89,	345.45,	345,	344.56,	344.11,	343.67,	343.23,	342.78,	342.34,	341.9,	341.46,	341.02,	340.58,	340.14,	339.71,	339.27,	338.83,	338.4,	337.96,	337.53,	337.09,
336.66,	336.23,	335.8,	335.36,	334.93,	334.5,	334.08,	333.65,	333.22,	332.79,	332.37,	331.94,	331.52,	331.09,	330.67,	330.24,	329.82,	329.4,	328.98,	328.56,	328.14,
327.72,	327.3,	326.88,	326.46,	326.05,	325.63,	325.21,	324.8,	324.39,	323.97,	323.56,	323.15,	322.73,	322.32,	321.91,	321.5,	321.09,	320.68,	320.28,	319.87,	319.46,
319.06,	318.65,	318.24,	317.84,	317.44,	317.03,	316.63,	316.23,	315.83,	315.43,	315.03,	314.63,	314.23,	313.83,	313.43,	313.03,	312.64,	312.24,	311.85,	311.45,	311.06,
310.66,	310.27,	309.88,	309.49,	309.09,	308.7,	308.31,	307.92,	307.54,	307.15,	306.76,	306.37,	305.99,	305.6,	305.21,	304.83,	304.44,	304.06,	303.68,	303.3,	302.91,
302.53,	302.15,	301.77,	301.39,	301.01,	300.63,	300.26,	299.88,	299.5,	299.12,	298.75,	298.37,	298,	297.62,	297.25,	296.88,	296.51,	296.13,	295.76,	295.39,	295.02,
294.65,	294.28,	293.91,	293.55,	293.18,	292.81,	292.45,	292.08,	291.71,	291.35,	290.99,	290.62,	290.26,	289.9,	289.53,	289.17,	288.81,	288.45,	288.09,	287.73,	287.37,
287.01,	286.66,	286.3,	285.94,	285.59,	285.23,	284.88,	284.52,	284.17,	283.81,	283.46,	283.11,	282.76,	282.4,	282.05,	281.7,	281.35,	281,	280.65,	280.31,	279.96,
279.61,	279.26,	278.92,	278.57,	278.23,	277.88,	277.54,	277.19,	276.85,	276.51,	276.17,	275.82,	275.48,	275.14,	274.8,	274.46,	274.12,	273.78,	273.45,	273.11,	272.77,
272.43,	272.1,	271.76,	271.43,	271.09,	270.76,	270.42,	270.09,	269.76,	269.42,	269.09,	268.76,	268.43,	268.1,	267.77,	267.44,	267.11,	266.78,	266.45,	266.13,	265.8,
265.47,	265.15,	264.82,	264.5,	264.17,	263.85,	263.52,	263.2,	262.88,	262.56,	262.23,	261.91,	261.59,	261.27,	260.95,	260.63,	260.31,	259.99,	259.68,	259.36,	259.04,
258.72,	258.41,	258.09,	257.78,	257.46,	257.15,	256.83,	256.52,	256.21,	255.89,	255.58,	255.27,	254.96,	254.65,	254.34,	254.03,	253.72,	253.41,	253.1,	252.79,	252.49,
252.18,	251.87,	251.57,	251.26,	250.95,	250.65,	250.34,	250.04,	249.74,	249.43,	249.13,	248.83,	248.53,	248.22,	247.92,	247.62,	247.32,	247.02,	246.72,	246.42,	246.13,
245.83,	245.53,	245.23,	244.94,	244.64,	244.34,	244.05,	243.75,	243.46,	243.17,	242.87,	242.58,	242.29,	241.99,	241.7,	241.41,	241.12,	240.83,	240.54,	240.25,	239.96,
239.67,	239.38,	239.09,	238.8,	238.52,	238.23,	237.94,	237.66,	237.37,	237.08,	236.8,	236.51,	236.23,	235.95,	235.66,	235.38,	235.1,	234.81,	234.53,	234.25,	233.97,
233.69,	233.41,	233.13,	232.85,	232.57,	232.29,	232.01,	231.74,	231.46,	231.18,	230.91,	230.63,	230.35,	230.08,	229.8,	229.53,	229.25,	228.98,	228.71,	228.43,	228.16,
227.89,	227.62,	227.35,	227.07,	226.8,	226.53,	226.26,	225.99,	225.72,	225.46,	225.19,	224.92,	224.65,	224.38,	224.12,	223.85,	223.58,	223.32,	223.05,	222.79,	222.52,
222.26,	222,	221.73,	221.47,	221.21,	220.94,	220.68,	220.42,	220.16,	219.9,	219.64,	219.38,	219.12,	218.86,	218.6,	218.34,	218.08,	217.82,	217.56,	217.31,	217.05,
216.79,	216.54,	216.28,	216.03,	215.77,	215.52,	215.26,	215.01,	214.75,	214.5,	214.25,	214,	213.74,	213.49,	213.24,	212.99,	212.74,	212.49,	212.24,	211.99,	211.74,
211.49,	211.24,	210.99,	210.74,	210.5,	210.25,	210,	209.75,	209.51,	209.26,	209.02,	208.77,	208.53,	208.28,	208.04,	207.79,	207.55,	207.31,	207.06,	206.82,	206.58,
206.34,	206.1,	205.85,	205.61,	205.37,	205.13,	204.89,	204.65,	204.41,	204.17,	203.94,	203.7,	203.46,	203.22,	202.99,	202.75,	202.51,	202.28,	202.04,	201.8,	201.57,
201.33,	201.1,	200.87,	200.63,	200.4,	200.16,	199.93,	199.7,	199.47,	199.23,	199,	198.77,	198.54,	198.31,	198.08,	197.85,	197.62,	197.39,	197.16,	196.93,	196.7,
196.48,	196.25,	196.02,	195.79,	195.57,	195.34,	195.11,	194.89,	194.66,	194.44,	194.21,	193.99,	193.76,	193.54,	193.31,	193.09,	192.87,	192.64,	192.42,	192.2,	191.98,
191.76,	191.54,	191.31,	191.09,	190.87,	190.65,	190.43,	190.21,	189.99,	189.78,	189.56,	189.34,	189.12,	188.9,	188.69,	188.47,	188.25,	188.04,	187.82,	187.6,	187.39,
187.17,	186.96,	186.74,	186.53,	186.31,	186.1
};

uint32_t  j2_form_value_num = ARRAY_NUM(j2_form_value);

float g2_form_value[] = {
1582312.39,	1484216.93,	1392202.90,	1305893.28,	1224934.43,	1148994.61,	1077762.69,	1010946.79,	948273.15,	889484.95,	834341.33,	782616.34,	734098.04,	688587.63,	645898.64,
1577257.08,	1479475.02,	1387754.97,	1301721.10,	1221020.90,	1145323.71,	1074319.36,	1007716.94,	945243.52,	886643.15,	831675.71,	780115.97,	731752.68,	686387.67,	643835.07,
1572217.92,	1474748.27,	1383321.25,	1297562.25,	1217119.88,	1141664.53,	1070887.04,	1004497.40,	942223.58,	883810.43,	829018.60,	777623.59,	729414.82,	684194.74,	641778.09,
1567194.87,	1470036.62,	1378901.70,	1293416.69,	1213231.32,	1138017.04,	1067465.68,	1001288.14,	939213.28,	880986.75,	826369.98,	775139.17,	727084.42,	682008.82,	639727.68,
1562187.86,	1465340.02,	1374496.27,	1289284.37,	1209355.18,	1134381.21,	1064055.25,	998089.14,	936212.60,	878172.10,	823729.82,	772662.69,	724761.47,	679829.88,	637683.83,
1557196.85,	1460658.43,	1370104.91,	1285165.25,	1205491.43,	1130756.99,	1060655.71,	994900.36,	933221.51,	875366.44,	821098.10,	770194.12,	722445.94,	677657.90,	635646.50,
1552221.78,	1455991.79,	1365727.58,	1281059.30,	1201640.03,	1127144.35,	1057267.04,	991721.77,	930239.98,	872569.75,	818474.79,	767733.44,	720137.81,	675492.86,	633615.68,
1547262.61,	1451340.06,	1361364.24,	1276966.46,	1197800.92,	1123543.25,	1053889.19,	988553.33,	927267.97,	869781.99,	815859.85,	765280.62,	717837.05,	673334.74,	631591.35,
1542319.28,	1446703.20,	1357014.83,	1272886.70,	1193974.09,	1119953.66,	1050522.13,	985395.01,	924305.45,	867003.13,	813253.27,	762835.64,	715543.64,	671183.51,	629573.49,
1537391.75,	1442081.15,	1352679.33,	1268819.97,	1190159.48,	1116375.54,	1047165.84,	982246.79,	921352.40,	864233.16,	810655.02,	760398.46,	713257.56,	669039.16,	627562.08,
1532479.96,	1437473.86,	1348357.67,	1264766.24,	1186357.05,	1112808.85,	1043820.26,	979108.62,	918408.78,	861472.03,	808065.07,	757969.08,	710978.78,	666901.65,	625557.09,
1527583.86,	1432881.30,	1344049.82,	1260725.45,	1182566.78,	1109253.55,	1040485.38,	975980.48,	915474.57,	858719.73,	805483.40,	755547.45,	708707.29,	664770.98,	623558.50,
1522703.41,	1428303.41,	1339755.74,	1256697.58,	1178788.61,	1105709.61,	1037161.14,	972862.34,	912549.74,	855976.22,	802909.97,	753133.57,	706443.05,	662647.11,	621566.31,
1517838.54,	1423740.14,	1335475.37,	1252682.58,	1175022.52,	1102177.00,	1033847.53,	969754.16,	909634.25,	853241.47,	800344.76,	750727.39,	704186.05,	660530.03,	619580.47,
1512989.22,	1419191.46,	1331208.68,	1248680.40,	1171268.46,	1098655.67,	1030544.51,	966655.90,	906728.07,	850515.46,	797787.76,	748328.90,	701936.25,	658419.71,	617600.98,
1508155.40,	1414657.30,	1326955.62,	1244691.01,	1167526.39,	1095145.59,	1027252.04,	963567.55,	903831.18,	847798.16,	795238.91,	745938.08,	699693.65,	656316.14,	615627.82,
1503337.01,	1410137.63,	1322716.15,	1240714.36,	1163796.27,	1091646.72,	1023970.08,	960489.06,	900943.54,	845089.54,	792698.22,	743554.89,	697458.21,	654219.28,	613660.96,
1498534.02,	1405632.41,	1318490.22,	1236750.42,	1160078.08,	1088159.04,	1020698.62,	957420.41,	898065.13,	842389.58,	790165.64,	741179.32,	695229.91,	652129.13,	611700.38,
1493746.38,	1401141.57,	1314277.80,	1232799.15,	1156371.76,	1084682.49,	1017437.60,	954361.56,	895195.91,	839698.24,	787641.15,	738811.34,	693008.73,	650045.65,	609746.07,
1488974.03,	1396665.08,	1310078.83,	1228860.49,	1152677.29,	1081217.06,	1014187.01,	951312.48,	892335.86,	837015.50,	785124.73,	736450.92,	690794.64,	647968.83,	607798.00,
607800,	605825.2,	603857.46,	601896.75,	599943.06,	597996.34,	596056.58,	594123.74,	592197.8,	590278.74,	588366.52,	586461.12,	584562.52,	582670.68,	580785.58,	578907.2,	577035.51,	575170.47,	573312.08,	571460.3,	569615.1,
567776.46,	565944.36,	564118.76,	562299.65,	560487.01,	558680.79,	556880.99,	555087.57,	553300.51,	551519.78,	549745.37,	547977.24,	546215.38,	544459.76,	542710.35,	540967.13,	539230.08,	537499.17,	535774.38,	534055.69,	532343.07,
530636.5,	528935.96,	527241.42,	525552.86,	523870.26,	522193.59,	520522.83,	518857.96,	517198.96,	515545.8,	513898.46,	512256.92,	510621.16,	508991.16,	507366.88,	505748.32,	504135.45,	502528.24,	500926.68,	499330.75,	497740.41,
496155.66,	494576.47,	493002.81,	491434.68,	489872.04,	488314.87,	486763.16,	485216.89,	483676.03,	482140.56,	480610.46,	479085.72,	477566.3,	476052.2,	474543.39,	473039.85,	471541.56,	470048.5,	468560.65,	467077.99,	465600.5,
464128.17,	462660.97,	461198.88,	459741.89,	458289.96,	456843.1,	455401.27,	453964.45,	452532.64,	451105.8,	449683.93,	448266.99,	446854.98,	445447.87,	444045.65,	442648.29,	441255.78,	439868.1,	438485.24,	437107.17,	435733.87,
434365.33,	433001.54,	431642.46,	430288.09,	428938.41,	427593.39,	426253.03,	424917.3,	423586.18,	422259.67,	420937.73,	419620.37,	418307.55,	416999.25,	415695.48,	414396.2,	413101.4,	411811.06,	410525.16,	409243.7,	407966.65,
406694,	405425.72,	404161.81,	402902.25,	401647.01,	400396.09,	399149.47,	397907.13,	396669.06,	395435.24,	394205.65,	392980.28,	391759.12,	390542.14,	389329.33,	388120.68,	386916.17,	385715.78,	384519.51,	383327.33,	382139.22,
380955.19,	379775.2,	378599.24,	377427.3,	376259.37,	375095.43,	373935.46,	372779.44,	371627.38,	370479.24,	369335.02,	368194.7,	367058.27,	365925.7,	364797,	363672.14,	362551.11,	361433.89,	360320.47,	359210.84,	358104.98,
357002.89,	355904.53,	354809.91,	353719,	352631.8,	351548.29,	350468.45,	349392.27,	348319.75,	347250.86,	346185.59,	345123.93,	344065.86,	343011.38,	341960.47,	340913.11,	339869.29,	338829.01,	337792.24,	336758.97,	335729.2,
334702.9,	333680.07,	332660.69,	331644.75,	330632.24,	329623.14,	328617.44,	327615.13,	326616.2,	325620.64,	324628.43,	323639.55,	322654.01,	321671.78,	320692.85,	319717.21,	318744.86,	317775.77,	316809.93,	315847.34,	314887.98,
313931.85,	312978.91,	312029.18,	311082.63,	310139.25,	309199.03,	308261.96,	307328.04,	306397.23,	305469.55,	304544.96,	303623.47,	302705.06,	301789.73,	300877.45,	299968.21,	299062.02,	298158.85,	297258.7,	296361.54,	295467.39,
294576.21,	293688.01,	292802.76,	291920.47,	291041.11,	290164.68,	289291.17,	288420.57,	287552.86,	286688.04,	285826.1,	284967.02,	284110.79,	283257.41,	282406.86,	281559.14,	280714.23,	279872.12,	279032.81,	278196.28,	277362.52,
276531.53,	275703.29,	274877.79,	274055.03,	273234.99,	272417.66,	271603.04,	270791.11,	269981.86,	269175.29,	268371.39,	267570.14,	266771.53,	265975.56,	265182.22,	264391.5,	263603.38,	262817.87,	262034.94,	261254.59,	260476.82,
259701.6,	258928.94,	258158.82,	257391.23,	256626.17,	255863.63,	255103.59,	254346.05,	253591,	252838.42,	252088.32,	251340.68,	250595.5,	249852.76,	249112.45,	248374.58,	247639.12,	246906.07,	246175.42,	245447.17,	244721.3,
243997.8,	243276.67,	242557.91,	241841.49,	241127.41,	240415.67,	239706.25,	238999.15,	238294.35,	237591.86,	236891.66,	236193.75,	235498.11,	234804.74,	234113.62,	233424.76,	232738.15,	232053.77,	231371.62,	230691.68,	230013.96,
229338.45,	228665.13,	227994,	227325.05,	226658.27,	225993.66,	225331.21,	224670.9,	224012.74,	223356.72,	222702.82,	222051.04,	221401.37,	220753.81,	220108.35,	219464.97,	218823.68,	218184.47,	217547.32,	216912.23,	216279.2,
215648.21,	215019.26,	214392.34,	213767.45,	213144.58,	212523.71,	211904.85,	211287.99,	210673.11,	210060.22,	209449.3,	208840.35,	208233.36,	207628.33,	207025.24,	206424.09,	205824.88,	205227.6,	204632.23,	204038.78,	203447.24,
202857.6,	202269.85,	201683.98,	201100,	200517.89,	199937.65,	199359.27,	198782.74,	198208.06,	197635.22,	197064.22,	196495.05,	195927.69,	195362.16,	194798.43,	194236.5,	193676.37,	193118.04,	192561.48,	192006.71,	191453.7,
190902.46,	190352.98,	189805.26,	189259.28,	188715.04,	188172.54,	187631.76,	187092.71,	186555.37,	186019.75,	185485.83,	184953.61,	184423.09,	183894.25,	183367.09,	182841.61,	182317.8,	181795.65,	181275.16,	180756.32,	180239.13,
179723.58,	179209.66,	178697.38,	178186.72,	177677.68,	177170.25,	176664.42,	176160.2,	175657.58,	175156.55,	174657.1,	174159.23,	173662.93,	173168.21,	172675.04,	172183.44,	171693.39,	171204.88,	170717.92,	170232.49,	169748.6,
169266.23,	168785.38,	168306.04,	167828.22,	167351.9,	166877.08,	166403.76,	165931.93,	165461.58,	164992.71,	164525.31,	164059.39,	163594.92,	163131.92,	162670.37,	162210.27,	161751.62,	161294.4,	160838.62,	160384.26,	159931.34,
159479.83,	159029.73,	158581.05,	158133.77,	157687.89,	157243.41,	156800.32,	156358.61,	155918.28,	155479.33,	155041.76,	154605.55,	154170.7,	153737.21,	153305.07,	152874.28,	152444.84,	152016.74,	151589.97,	151164.53,	150740.41,
150317.62,	149896.14,	149475.98,	149057.12,	148639.57,	148223.31,	147808.35,	147394.68,	146982.3,	146571.2,	146161.37,	145752.82,	145345.53,	144939.51,	144534.75,	144131.25,	143728.99,	143327.98,	142928.22,	142529.69,	142132.4,
141736.34,	141341.5,	140947.89,	140555.49,	140164.31,	139774.33,	139385.56,	138998,	138611.63,	138226.45,	137842.46,	137459.66,	137078.04,	136697.6,	136318.32,	135940.22,	135563.29,	135187.51,	134812.89,	134439.43,	134067.12,
133695.95,	133325.92,	132957.03,	132589.28,	132222.65,	131857.16,	131492.78,	131129.53,	130767.39,	130406.36,	130046.44,	129687.62,	129329.91,	128973.29,	128617.76,	128263.32,	127909.97,	127557.7,	127206.51,	126856.4,	126507.35,
126159.38,	125812.46,	125466.61,	125121.82,	124778.08,	124435.38,	124093.74,	123753.14,	123413.57,	123075.05,	122737.55,	122401.09,	122065.65,	121731.23,	121397.83,	121065.45,	120734.08,	120403.72,	120074.36,	119746.01,	119418.65,
119092.29,	118766.92,	118442.54,	118119.14,	117796.73,	117475.3,	117154.84,	116835.35,	116516.84,	116199.29,	115882.7,	115567.07,	115252.4,	114938.68,	114625.91,	114314.09,	114003.21,	113693.27,	113384.27,	113076.21,	112769.07,
112462.87,	112157.58,	111853.22,	111549.78,	111247.26,	110945.65,	110644.95,	110345.15,	110046.26,	109748.27,	109451.18,	109154.99,	108859.68,	108565.27,	108271.74,	107979.09,	107687.33,	107396.44,	107106.43,	106817.29,	106529.01,
106241.61,	105955.06,	105669.38,	105384.55,	105100.58,	104817.46,	104535.19,	104253.77,	103973.19,	103693.45,	103414.55,	103136.48,	102859.25,	102582.84,	102307.27,	102032.51,	101758.58,	101485.47,	101213.17,	100941.69,	100671.02,
100401.15,	100132.1,	99863.84,	99596.39,	99329.73,	99063.87,	98798.8,	98534.52,	98271.03,	98008.32,	97746.4,	97485.25,	97224.88,	96965.29,	96706.47,	96448.42,	96191.13,	95934.61,	95678.85,	95423.85,	95169.61,
94916.13,	94663.39,	94411.41,	94160.17,	93909.68,	93659.93,	93410.92,	93162.64,	92915.11,	92668.3,	92422.23,	92176.88,	91932.26,	91688.37,	91445.19,	91202.73,	90960.99,	90719.97,	90479.65,	90240.05,	90001.15,
89762.96,	89525.47,	89288.68,	89052.58,	88817.19,	88582.49,	88348.48,	88115.15,	87882.52,	87650.57,	87419.3,	87188.71,	86958.8,	86729.57,	86501.01,	86273.12,	86045.9,	85819.35,	85593.46,	85368.24,	85143.67,
84919.77,	84696.52,	84473.93,	84251.99,	84030.7,	83810.05,	83590.06,	83370.7,	83151.99,	82933.92,	82716.49,	82499.69,	82283.53,	82068,	81853.09,	81638.82,	81425.17,	81212.14,	80999.74,	80787.96,	80576.79,
80366.24,	80156.3,	79946.98,	79738.26,	79530.15,	79322.65,	79115.76,	78909.46,	78703.76,	78498.67,	78294.17,	78090.26,	77886.95,	77684.22,	77482.09,	77280.54,	77079.58,	76879.2,	76679.4,	76480.18,	76281.54,
76083.48,	75885.98,	75689.07,	75492.72,	75296.94,	75101.72,	74907.07,	74712.99,	74519.46,	74326.5,	74134.09,	73942.24,	73750.94,	73560.2,	73370,	73180.36,	72991.26,	72802.71,	72614.7,	72427.23,	72240.31,
72053.92,	71868.07,	71682.75,	71497.97,	71313.72,	71130,	70946.81,	70764.14,	70582,	70400.39,	70219.29,	70038.72,	69858.66,	69679.13,	69500.1,	69321.59,	69143.6,	68966.11,	68789.13,	68612.66,	68436.69,
68261.23,	68086.27,	67911.82,	67737.86,	67564.4,	67391.43,	67218.96,	67046.99,	66875.5,	66704.51,	66534,	66363.98,	66194.44,	66025.39,	65856.82,	65688.74,	65521.13,	65354,	65187.34,	65021.16,	64855.46,
64690.22,	64525.46,	64361.17,	64197.34,	64033.98,	63871.08,	63708.65,	63546.68,	63385.16,	63224.11,	63063.52,	62903.38,	62743.69,	62584.46,	62425.68,	62267.35,	62109.47,	61952.03,	61795.05,	61638.5,	61482.4,
61326.75,	61171.53,	61016.75,	60862.41,	60708.51,	60555.04,	60402,	60249.4,	60097.23,	59945.49,	59794.18,	59643.29,	59492.83,	59342.79,	59193.18,	59043.99,	58895.22,	58746.87,	58598.93,	58451.42,	58304.31,
58157.63,	58011.35,	57865.49,	57720.04,	57574.99,	57430.35,	57286.12,	57142.3,	56998.88,	56855.86,	56713.24,	56571.03,	56429.21,	56287.79,	56146.76,	56006.14,	55865.9,	55726.06,	55586.61,	55447.55,	55308.88,
55170.6,	55032.7,	54895.19,	54758.07,	54621.32,	54484.96,	54348.99,	54213.39,	54078.17,	53943.32,	53808.86,	53674.76,	53541.05,	53407.7,	53274.73,	53142.12,	53009.89,	52878.02,	52746.53,	52615.39,	52484.63,
52354.22,	52224.18,	52094.5,	51965.19,	51836.23,	51707.63,	51579.38,	51451.49,	51323.96,	51196.78,	51069.96,	50943.48,	50817.36,	50691.58,	50566.16,	50441.08,	50316.35,	50191.96,	50067.92,	49944.22,	49820.86,
49697.85,	49575.17,	49452.84,	49330.84,	49209.18,	49087.85,	48966.86,	48846.21,	48725.89,	48605.9,	48486.24,	48366.91,	48247.9,	48129.23,	48010.88,	47892.86,	47775.17,	47657.8,	47540.75,	47424.02,	47307.62,
47191.53,	47075.77,	46960.32,	46845.19,	46730.38,	46615.88,	46501.69,	46387.82,	46274.26,	46161.02,	46048.08,	45935.45,	45823.13,	45711.12,	45599.42,	45488.02,	45376.93,	45266.14,	45155.65,	45045.47,	44935.59,
44826.01,	44716.72,	44607.74,	44499.05,	44390.66,	44282.57,	44174.77,	44067.27,	43960.06,	43853.14,	43746.51,	43640.18,	43534.13,	43428.37,	43322.9,	43217.72,	43112.83,	43008.22,	42903.89,	42799.85,	42696.09,
42592.61,	42489.41,	42386.5,	42283.86,	42181.51,	42079.43,	41977.62,	41876.1,	41774.85,	41673.87,	41573.17,	41472.74,	41372.58,	41272.69,	41173.08,	41073.73,	40974.65,	40875.84,	40777.3,	40679.03,	40581.02,
40483.27,	40385.79,	40288.57,	40191.62,	40094.92,	39998.49,	39902.32,	39806.41,	39710.75,	39615.36,	39520.22,	39425.34,	39330.71,	39236.34,	39142.22,	39048.35,	38954.74,	38861.38,	38768.27,	38675.41,	38582.8,
38490.44,	38398.33,	38306.46,	38214.85,	38123.47,	38032.35,	37941.46,	37850.83,	37760.43,	37670.28,	37580.36,	37490.69,	37401.26,	37312.07,	37223.12,	37134.4,	37045.93,	36957.69,	36869.68,	36781.91,	36694.38,
36607.08,	36520.01,	36433.17,	36346.57,	36260.2,	36174.06,	36088.14,	36002.46,	35917.01,	35831.78,	35746.78,	35662.01,	35577.46,	35493.14,	35409.04,	35325.17,	35241.51,	35158.09,	35074.88,	34991.89,	34909.13,
34826.58,	34744.26,	34662.15,	34580.26,	34498.59,	34417.14,	34335.9,	34254.87,	34174.06,	34093.47,	34013.09,	33932.92,	33852.96,	33773.22,	33693.69,	33614.36,	33535.25,	33456.35,	33377.65,	33299.16,	33220.88,
33142.81,	33064.94,	32987.28,	32909.83,	32832.57,	32755.53,	32678.68,	32602.04,	32525.6,	32449.36,	32373.32,	32297.48,	32221.85,	32146.41,	32071.17,	31996.12,	31921.28,	31846.63,	31772.18,	31697.92,	31623.86,
31549.99,	31476.32,	31402.84,	31329.55,	31256.46,	31183.56,	31110.85,	31038.33,	30965.99,	30893.85,	30821.9,	30750.14,	30678.56,	30607.17,	30535.97,	30464.96,	30394.13,	30323.48,	30253.02,	30182.75,	30112.65,
30042.75,	29973.02,	29903.47,	29834.11,	29764.93,	29695.93,	29627.11,	29558.46,	29490,	29421.69,	29353.57,	29285.62,	29217.84,	29150.24,	29082.82,	29015.58,	28948.5,	28881.61,	28814.88,	28748.33,	28681.95,
28615.75,	28549.71,	28483.85,	28418.16,	28352.64,	28287.28,	28222.1,	28157.09,	28092.24,	28027.56,	27963.05,	27898.71,	27834.53,	27770.52,	27706.68,	27643,	27579.48,	27516.13,	27452.94,	27389.91,	27327.05,
27264.35,	27201.81,	27139.44,	27077.22,	27015.16,	26953.27,	26891.53,	26829.95,	26768.53,	26707.27,	26646.17,	26585.22,	26524.43,	26463.8,	26403.32,	26343,	26282.83,	26222.82,	26162.96,	26103.26,	26043.71,
25984.31,	25925.06,	25865.97,	25807.03,	25748.23,	25689.59,	25631.1,	25572.76,	25514.57,	25456.53,	25398.63,	25340.89,	25283.29,	25225.84,	25168.53,	25111.38,	25054.37,	24997.5,	24940.78,	24884.2,	24827.77,
24771.48,	24715.34,	24659.34,	24603.48,	24547.77,	24492.19,	24436.76,	24381.47,	24326.32,	24271.31,	24216.44,	24161.71,	24107.12,	24052.67,	23998.36,	23944.18,	23890.14,	23836.24,	23782.48,	23728.85,	23675.36,
23622,	23568.79,	23515.7,	23462.75,	23409.93,	23357.25,	23304.7,	23252.29,	23200,	23147.85,	23095.84,	23043.95,	22992.19,	22940.57,	22889.07,	22837.71,	22786.48,	22735.37,	22684.4,	22633.55,	22582.83,
22532.24,	22481.78,	22431.44,	22381.23,	22331.15,	22281.19,	22231.36,	22181.66,	22132.08,	22082.62,	22033.29,	21984.09,	21935.01,	21886.05,	21837.21,	21788.5,	21739.91,	21691.44,	21643.09,	21594.87,	21546.76,
21498.78,	21450.92,	21403.17,	21355.55,	21308.05,	21260.66,	21213.4,	21166.25,	21119.22,	21072.31,	21025.51,	20978.84,	20932.27,	20885.83,	20839.5,	20793.29,	20747.19,	20701.21,	20655.35,	20609.59,	20563.96,
20518.43,	20473.02,	20427.73,	20382.54,	20337.47,	20292.51,	20247.66,	20202.93,	20158.3,	20113.79,	20069.39,	20025.1,	19980.92,	19936.85,	19892.88,	19849.03,	19805.29,	19761.65,	19718.13,	19674.71,	19631.4,
19588.2,	19545.1,	19502.11,	19459.23,	19416.45,	19373.78,	19331.22,	19288.76,	19246.41,	19204.16,	19162.02,	19119.98,	19078.04,	19036.21,	18994.48,	18952.86,	18911.33,	18869.91,	18828.6,	18787.38,	18746.27,
18705.26,	18664.35,	18623.54,	18582.83,	18542.22,	18501.71,	18461.3,	18420.99,	18380.78,	18340.67,	18300.66,	18260.75,	18220.93,	18181.21,	18141.59,	18102.07,	18062.65,	18023.32,	17984.09,	17944.95,	17905.91,
17866.97,	17828.12,	17789.37,	17750.71,	17712.15,	17673.68,	17635.31,	17597.03,	17558.84,	17520.75,	17482.75,	17444.85,	17407.03,	17369.31,	17331.69,	17294.15,	17256.7,	17219.35,	17182.09,	17144.92,	17107.84,
17070.85,	17033.95,	16997.14,	16960.42,	16923.79,	16887.25,	16850.8,	16814.44,	16778.17,	16741.98,	16705.89,	16669.88,	16633.95,	16598.12,	16562.37,	16526.71,	16491.14,	16455.65,	16420.25,	16384.94,	16349.71,
16314.57,	16279.51,	16244.54,	16209.65,	16174.85,	16140.13,	16105.49,	16070.94,	16036.48,	16002.09,	15967.79,	15933.57,	15899.44,	15865.39,	15831.42,	15797.53,	15763.73,	15730,	15696.36,	15662.8,	15629.32,
15595.92,	15562.61,	15529.37,	15496.21,	15463.14,	15430.14,	15397.22,	15364.38,	15331.62,	15298.94,	15266.34,	15233.82,	15201.37,	15169.01,	15136.72,	15104.51,	15072.37,	15040.32,	15008.34,	14976.44,	14944.61,
14912.86,	14881.19,	14849.59,	14818.07,	14786.63,	14755.26,	14723.96,	14692.74,	14661.6,	14630.53,	14599.53,	14568.61,	14537.76,	14506.99,	14476.29,	14445.66,	14415.11,	14384.63,	14354.22,	14323.89,	14293.63,
14263.44,	14233.32,	14203.27,	14173.3,	14143.4,	14113.57,	14083.81,	14054.12,	14024.5,	13994.95,	13965.48,	13936.07,	13906.73,	13877.47,	13848.27,	13819.14,	13790.08,	13761.1,	13732.18,	13703.32,	13674.54,
13645.83,	13617.18,	13588.6,	13560.09,	13531.65,	13503.27,	13474.97,	13446.73,	13418.55,	13390.45,	13362.41,	13334.43,	13306.53,	13278.68,	13250.91,	13223.2,	13195.56,	13167.98,	13140.46,	13113.02,	13085.63,
13058.31,	13031.06,	13003.87,	12976.74,	12949.68,	12922.69,	12895.75,	12868.88,	12842.07,	12815.33,	12788.65,	12762.03,	12735.48,	12708.99,	12682.56,	12656.19,	12629.88,	12603.64,	12577.46,	12551.34,	12525.28,
12499.28,	12473.34,	12447.47,	12421.65,	12395.9,	12370.21,	12344.57,	12319,	12293.49,	12268.03,	12242.64,	12217.3,	12192.03,	12166.81,	12141.66,	12116.56,	12091.52,	12066.54,	12041.62,	12016.76,	11991.95,
11967.21,	11942.52,	11917.88,	11893.31,	11868.79,	11844.33,	11819.93,	11795.59,	11771.3,	11747.07,	11722.89,	11698.77,	11674.71,	11650.7,	11626.75,	11602.86,	11579.02,	11555.24,	11531.51,	11507.83,	11484.22,
11460.65,	11437.15,	11413.69,	11390.29,	11366.95,	11343.66,	11320.42,	11297.24,	11274.11,	11251.04,	11228.02,	11205.05,	11182.13,	11159.27,	11136.46,	11113.71,	11091,	11068.35,	11045.76,	11023.21,	11000.72,
10978.28,	10955.89,	10933.55,	10911.26,	10889.03,	10866.85,	10844.71,	10822.63,	10800.6,	10778.62,	10756.7,	10734.82,	10712.99,	10691.22,	10669.49,	10647.81,	10626.19,	10604.61,	10583.08,	10561.61,	10540.18,
10518.8,	10497.47,	10476.19,	10454.96,	10433.77,	10412.64,	10391.56,	10370.52,	10349.53,	10328.59,	10307.7,	10286.85,	10266.06,	10245.31,	10224.61,	10203.95,	10183.35,	10162.79,	10142.28,	10121.81,	10101.39,
10081.02,	10060.7,	10040.42,	10020.19,	10000,	9979.86,	9959.77,	9939.72,	9919.72,	9899.76,	9879.85,	9859.99,	9840.17,	9820.39,	9800.66,	9780.98,	9761.34,	9741.74,	9722.19,	9702.69,	9683.23,
9663.81,	9644.44,	9625.11,	9605.83,	9586.59,	9567.39,	9548.24,	9529.13,	9510.06,	9491.04,	9472.06,	9453.12,	9434.23,	9415.38,	9396.57,	9377.8,	9359.08,	9340.4,	9321.76,	9303.17,	9284.61,
9266.1,	9247.63,	9229.21,	9210.82,	9192.47,	9174.17,	9155.91,	9137.69,	9119.51,	9101.37,	9083.28,	9065.22,	9047.21,	9029.23,	9011.3,	8993.4,	8975.55,	8957.74,	8939.96,	8922.23,	8904.54,
8886.89,	8869.27,	8851.7,	8834.17,	8816.67,	8799.22,	8781.8,	8764.43,	8747.09,	8729.79,	8712.53,	8695.31,	8678.13,	8660.98,	8643.88,	8626.81,	8609.78,	8592.79,	8575.84,	8558.93,	8542.05,
8525.21,	8508.41,	8491.65,	8474.93,	8458.24,	8441.59,	8424.97,	8408.4,	8391.86,	8375.36,	8358.89,	8342.47,	8326.07,	8309.72,	8293.4,	8277.12,	8260.87,	8244.66,	8228.49,	8212.35,	8196.25,
8180.19,	8164.16,	8148.16,	8132.21,	8116.28,	8100.4,	8084.55,	8068.73,	8052.95,	8037.2,	8021.49,	8005.82,	7990.18,	7974.57,	7959,	7943.46,	7927.96,	7912.49,	7897.06,	7881.66,	7866.29,
7850.96,	7835.66,	7820.4,	7805.17,	7789.97,	7774.81,	7759.68,	7744.59,	7729.53,	7714.5,	7699.5,	7684.54,	7669.61,	7654.72,	7639.85,	7625.02,	7610.23,	7595.46,	7580.73,	7566.03,	7551.36,
7536.73,	7522.13,	7507.56,	7493.02,	7478.51,	7464.04,	7449.6,	7435.19,	7420.81,	7406.46,	7392.15,	7377.86,	7363.61,	7349.39,	7335.2,	7321.04,	7306.91,	7292.82,	7278.75,	7264.72,	7250.71,
7236.74,	7222.8,	7208.89,	7195.01,	7181.15,	7167.33,	7153.54,	7139.78,	7126.05,	7112.35,	7098.69,	7085.05,	7071.44,	7057.86,	7044.31,	7030.78,	7017.29,	7003.83,	6990.4,	6977,	6963.62,
6950.28,	6936.96,	6923.68,	6910.42,	6897.19,	6883.99,	6870.82,	6857.68,	6844.57,	6831.48,	6818.43,	6805.4,	6792.4,	6779.43,	6766.48,	6753.57,	6740.68,	6727.82,	6714.99,	6702.19,	6689.42,
6676.67,	6663.95,	6651.26,	6638.59,	6625.96,	6613.35,	6600.77,	6588.21,	6575.68,	6563.18,	6550.71,	6538.26,	6525.84,	6513.45,	6501.09,	6488.75,	6476.43,	6464.15,	6451.89,	6439.66,	6427.45,
6415.27,	6403.12,	6390.99,	6378.89,	6366.82,	6354.77,	6342.75,	6330.75,	6318.78,	6306.83,	6294.91,	6283.02,	6271.15,	6259.31,	6247.49,	6235.7,	6223.94,	6212.2,	6200.48,	6188.79,	6177.12,
6165.48,	6153.87,	6142.28,	6130.72,	6119.17,	6107.66,	6096.17,	6084.7,	6073.26,	6061.84,	6050.45,	6039.08,	6027.74,	6016.42,	6005.13,	5993.86,	5982.61,	5971.39,	5960.19,	5949.01,	5937.86,
5926.73,	5915.63,	5904.55,	5893.5,	5882.46,	5871.46,	5860.47,	5849.51,	5838.57,	5827.66,	5816.77,	5805.9,	5795.05,	5784.23,	5773.43,	5762.66,	5751.9,	5741.17,	5730.47,	5719.78,	5709.12,
5698.48,	5687.87,	5677.27,	5666.7,	5656.15,	5645.63,	5635.12,	5624.64,	5614.18,	5603.74,	5593.33,	5582.94,	5572.57,	5562.22,	5551.89,	5541.59,	5531.3,	5521.04,	5510.8,	5500.58,	5490.39,
5480.21,	5470.06,	5459.93,	5449.82,	5439.73,	5429.66,	5419.62,	5409.59,	5399.59,	5389.61,	5379.64,	5369.7,	5359.78,	5349.89,	5340.01,	5330.15,	5320.32,	5310.5,	5300.71,	5290.93,	5281.18,
5271.45,	5261.73,	5252.04,	5242.37,	5232.72,	5223.09,	5213.48,	5203.89,	5194.32,	5184.77,	5175.24,	5165.73,	5156.24,	5146.77,	5137.32,	5127.89,	5118.48,	5109.09,	5099.71,	5090.36,	5081.03,
5071.72,	5062.43,	5053.15,	5043.9,	5034.66,	5025.45,	5016.25,	5007.08,	4997.92,	4988.78,	4979.66,	4970.56,	4961.48,	4952.42,	4943.38,	4934.35,	4925.35,	4916.36,	4907.39,	4898.44,	4889.51,
4880.6,	4871.71,	4862.83,	4853.97,	4845.14,	4836.32,	4827.52,	4818.73,	4809.97,	4801.22,	4792.49,	4783.78,	4775.09,	4766.42,	4757.76,	4749.13,	4740.51,	4731.9,	4723.32,	4714.75,	4706.2,
4697.67,	4689.16,	4680.67,	4672.19,	4663.73,	4655.29,	4646.86,	4638.45,	4630.06,	4621.69,	4613.33,	4604.99,	4596.67,	4588.37,	4580.08,	4571.81,	4563.56,	4555.33,	4547.11,	4538.91,	4530.72,
4522.55,	4514.4,	4506.27,	4498.15,	4490.05,	4481.97,	4473.9,	4465.85,	4457.82,	4449.8,	4441.8,	4433.81,	4425.85,	4417.89,	4409.96,	4402.04,	4394.14,	4386.25,	4378.38,	4370.53,	4362.69,
4354.87,	4347.06,	4339.27,	4331.5,	4323.74,	4316,	4308.27,	4300.56,	4292.87,	4285.19,	4277.53,	4269.88,	4262.25,	4254.63,	4247.03,	4239.45,	4231.88,	4224.33,	4216.79,	4209.27,	4201.76,
4194.27,	4186.79,	4179.33,	4171.88,	4164.45,	4157.03,	4149.63,	4142.25,	4134.88,	4127.52,	4120.18,	4112.86,	4105.55,	4098.25,	4090.97,	4083.7,	4076.45,	4069.21,	4061.99,	4054.79,	4047.59,
4040.42,	4033.25,	4026.1,	4018.97,	4011.85,	4004.74,	3997.65,	3990.58,	3983.51,	3976.47,	3969.43,	3962.41,	3955.41,	3948.42,	3941.44,	3934.48,	3927.53,	3920.6,	3913.68,	3906.77,	3899.88,
3893,	3886.14,	3879.29,	3872.45,	3865.63,	3858.82,	3852.02,	3845.24,	3838.47,	3831.72,	3824.98,	3818.25,	3811.54,	3804.84,	3798.15,	3791.48,	3784.82,	3778.17,	3771.54,	3764.92,	3758.31,
3751.72,	3745.14,	3738.58,	3732.02,	3725.48,	3718.96,	3712.44,	3705.94,	3699.45,	3692.98,	3686.52,	3680.07,	3673.63,	3667.21,	3660.8,	3654.41,	3648.02,	3641.65,	3635.29,	3628.95,	3622.61,
3616.29,	3609.99,	3603.69,	3597.41,	3591.14,	3584.88,	3578.64,	3572.4,	3566.18,	3559.98,	3553.78,	3547.6,	3541.43,	3535.27,	3529.13,	3522.99,	3516.87,	3510.76,	3504.67,	3498.58,	3492.51,
3486.45,	3480.4,	3474.36,	3468.34,	3462.33,	3456.33,	3450.34,	3444.36,	3438.4,	3432.44,	3426.5,	3420.57,	3414.66,	3408.75,	3402.86,	3396.98,	3391.11,	3385.25,	3379.4,	3373.56,	3367.74,
3361.93,	3356.13,	3350.34,	3344.56,	3338.79,	3333.04,	3327.29,	3321.56,	3315.84,	3310.13,	3304.43,	3298.75,	3293.07,	3287.41,	3281.75,	3276.11,	3270.48,	3264.86,	3259.25,	3253.65,	3248.07,
3242.49,	3236.93,	3231.37,	3225.83,	3220.3,	3214.78,	3209.27,	3203.77,	3198.28,	3192.8,	3187.33,	3181.88,	3176.43,	3171,	3165.57,	3160.16,	3154.76,	3149.37,	3143.99,	3138.61,	3133.25,
3127.9,	3122.57,	3117.24,	3111.92,	3106.61,	3101.31,	3096.03,	3090.75,	3085.48,	3080.23,	3074.98,	3069.75,	3064.52,	3059.31,	3054.1,	3048.91,	3043.72,	3038.55,	3033.38,	3028.23,	3023.08,
3017.95,	3012.83,	3007.71,	3002.61,	2997.51,	2992.43,	2987.36,	2982.29,	2977.24,	2972.19,	2967.16,	2962.13,	2957.12,	2952.11,	2947.12,	2942.13,	2937.16,	2932.19,	2927.23,	2922.29,	2917.35,
2912.42,	2907.5,	2902.59,	2897.69,	2892.8,	2887.92,	2883.05,	2878.19,	2873.34,	2868.5,	2863.66,	2858.84,	2854.03,	2849.22,	2844.42,	2839.64,	2834.86,	2830.09,	2825.33,	2820.58,	2815.84,
2811.11,	2806.39,	2801.68,	2796.97,	2792.28,	2787.59,	2782.92,	2778.25,	2773.59,	2768.94,	2764.3,	2759.67,	2755.05,	2750.43,	2745.83,	2741.23,	2736.65,	2732.07,	2727.5,	2722.94,	2718.39,
2713.84,	2709.31,	2704.78,	2700.27,	2695.76,	2691.26,	2686.77,	2682.28,	2677.81,	2673.35,	2668.89,	2664.44,	2660,	2655.57,	2651.15,	2646.74,	2642.33,	2637.93,	2633.54,	2629.16,	2624.79,
2620.43,	2616.07,	2611.73,	2607.39,	2603.06,	2598.74,	2594.42,	2590.12,	2585.82,	2581.53,	2577.25,	2572.98,	2568.72,	2564.46,	2560.21,	2555.97,	2551.74,	2547.52,	2543.3,	2539.09,	2534.89,
2530.7,	2526.52,	2522.34,	2518.17,	2514.01,	2509.86,	2505.72,	2501.58,	2497.45,	2493.33,	2489.22,	2485.12,	2481.02,	2476.93,	2472.85,	2468.78,	2464.71,	2460.65,	2456.6,	2452.56,	2448.52,
2444.5,	2440.48,	2436.46,	2432.46,	2428.46,	2424.47,	2420.49,	2416.52,	2412.55,	2408.59,	2404.64,	2400.7,	2396.76,	2392.83,	2388.91,	2384.99,	2381.09,	2377.19,	2373.29,	2369.41,	2365.53,
2361.66,	2357.8,	2353.94,	2350.09,	2346.25,	2342.42,	2338.59,	2334.77,	2330.96,	2327.16,	2323.36,	2319.57,	2315.78,	2312.01,	2308.24,	2304.47,	2300.72,	2296.97,	2293.23,	2289.5,	2285.77,
2282.05,	2278.33,	2274.63,	2270.93,	2267.24,	2263.55,	2259.87,	2256.2,	2252.54,	2248.88,	2245.23,	2241.58,	2237.95,	2234.32,	2230.69,	2227.08,	2223.47,	2219.86,	2216.27,	2212.68,	2209.09,
2205.52,	2201.95,	2198.38,	2194.83,	2191.28,	2187.73,	2184.2,	2180.67,	2177.14,	2173.63,	2170.12,	2166.61,	2163.12,	2159.63,	2156.14,	2152.66,	2149.19,	2145.73,	2142.27,	2138.82,	2135.37,
2131.93,	2128.5,	2125.07,	2121.65,	2118.24,	2114.83,	2111.43,	2108.04,	2104.65,	2101.27,	2097.89,	2094.52,	2091.16,	2087.8,	2084.45,	2081.11,	2077.77,	2074.44,	2071.11,	2067.79,	2064.48,
2061.17,	2057.87,	2054.58,	2051.29,	2048,	2044.73,	2041.46,	2038.19,	2034.93,	2031.68,	2028.43,	2025.19,	2021.96,	2018.73,	2015.5,	2012.29,	2009.08,	2005.87,	2002.67,	1999.48,	1996.29,
1993.11,	1989.94,	1986.77,	1983.6,	1980.44,	1977.29,	1974.14,	1971,	1967.87,	1964.74,	1961.62,	1958.5,	1955.39,	1952.28,	1949.18,	1946.09,	1943,	1939.91,	1936.83,	1933.76,	1930.7,
1927.64,	1924.58,	1921.53,	1918.49,	1915.45,	1912.41,	1909.39,	1906.37,	1903.35,	1900.34,	1897.33,	1894.33,	1891.34,	1888.35,	1885.37,	1882.39,	1879.42,	1876.45,	1873.49,	1870.53,	1867.58,
1864.63,	1861.69,	1858.76,	1855.83,	1852.91,	1849.99,	1847.07,	1844.17,	1841.26,	1838.37,	1835.47,	1832.59,	1829.71,	1826.83,	1823.96,	1821.09,	1818.23,	1815.38,	1812.52,	1809.68,	1806.84,
1804,	1801.17,	1798.35,	1795.53,	1792.72,	1789.91,	1787.1,	1784.3,	1781.51,	1778.72,	1775.94,	1773.16,	1770.38,	1767.62,	1764.85,	1762.09,	1759.34,	1756.59,	1753.85,	1751.11,	1748.37,
1745.65,	1742.92,	1740.2,	1737.49,	1734.78,	1732.07,	1729.38,	1726.68,	1723.99,	1721.31,	1718.63,	1715.95,	1713.28,	1710.61,	1707.95,	1705.3,	1702.65,	1700,	1697.36,	1694.72,	1692.08,
1689.45,	1686.83,	1684.21,	1681.6,	1678.98,	1676.38,	1673.78,	1671.18,	1668.59,	1666,	1663.42,	1660.84,	1658.27,	1655.7,	1653.14,	1650.58,	1648.02,	1645.47,	1642.93,	1640.39,	1637.85,
1635.32,	1632.79,	1630.27,	1627.75,	1625.24,	1622.73,	1620.22,	1617.72,	1615.23,	1612.74,	1610.25,	1607.77,	1605.29,	1602.81,	1600.35,	1597.88,	1595.42,	1592.96,	1590.51,	1588.07,	1585.62,
1583.18,	1580.75,	1578.32,	1575.89,	1573.47,	1571.06,	1568.64,	1566.24,	1563.83,	1561.43,	1559.04,	1556.65,	1554.26,	1551.88,	1549.5,	1547.12,	1544.75,	1542.39,	1540.03,	1537.67,	1535.32,
1532.97,	1530.62,	1528.28,	1525.94,	1523.61,	1521.28,	1518.96,	1516.64,	1514.32,	1512.01,	1509.7,	1507.4,	1505.1,	1502.81,	1500.51,	1498.23,	1495.94,	1493.66,	1491.39,	1489.12,	1486.85,
1484.59,	1482.33,	1480.07,	1477.82,	1475.57,	1473.33,	1471.09,	1468.86,	1466.63,	1464.4,	1462.17,	1459.95,	1457.74,	1455.53,	1453.32,	1451.11,	1448.91,	1446.72,	1444.53,	1442.34,	1440.15,
1437.97,	1435.79,	1433.62,	1431.45,	1429.29,	1427.12,	1424.97,	1422.81,	1420.66,	1418.51,	1416.37,	1414.23,	1412.1,	1409.96,	1407.84,	1405.71,	1403.59,	1401.48,	1399.36,	1397.25,	1395.15,
1393.05,	1390.95,	1388.85,	1386.76,	1384.67,	1382.59,	1380.51,	1378.43,	1376.36,	1374.29,	1372.23,	1370.16,	1368.11,	1366.05,	1364,	1361.95,	1359.91,	1357.87,	1355.83,	1353.8,	1351.77,
1349.74,	1347.72,	1345.7,	1343.68,	1341.67,	1339.66,	1337.66,	1335.65,	1333.66,	1331.66,	1329.67,	1327.68,	1325.7,	1323.72,	1321.74,	1319.77,	1317.79,	1315.83,	1313.86,	1311.9,	1309.95,
1307.99,	1306.04,	1304.09,	1302.15,	1300.21,	1298.27,	1296.34,	1294.41,	1292.48,	1290.56,	1288.64,	1286.72,	1284.81,	1282.9,	1280.99,	1279.09,	1277.19,	1275.29,	1273.4,	1271.51,	1269.62,
1267.74,	1265.86,	1263.98,	1262.1,	1260.23,	1258.37,	1256.5,	1254.64,	1252.78,	1250.93,	1249.07,	1247.23,	1245.38,	1243.54,	1241.7,	1239.86,	1238.03,	1236.2,	1234.37,	1232.55,	1230.73,
1228.91,	1227.1,	1225.29,	1223.48,	1221.68,	1219.87,	1218.08,	1216.28,	1214.49,	1212.7,	1210.91,	1209.13,	1207.35,	1205.57,	1203.8,	1202.03,	1200.26,	1198.5,	1196.73,	1194.97,	1193.22,
1191.47,	1189.72,	1187.97,	1186.23,	1184.48,	1182.75,	1181.01,	1179.28,	1177.55,	1175.82,	1174.1,	1172.38,	1170.66,	1168.95,	1167.24,	1165.53,	1163.82,	1162.12,	1160.42,	1158.72,	1157.03,
1155.34,	1153.65,	1151.97,	1150.28,	1148.6,	1146.93,	1145.25,	1143.58,	1141.91,	1140.25,	1138.58,	1136.92,	1135.27,	1133.61,	1131.96,	1130.31,	1128.67,	1127.02,	1125.38,	1123.75,	1122.11,
1120.48,	1118.85,	1117.22,	1115.6,	1113.98,	1112.36,	1110.75,	1109.13,	1107.52,	1105.92,	1104.31,	1102.71,	1101.11,	1099.51,	1097.92,	1096.33,	1094.74,	1093.16,	1091.57,	1089.99,	1088.41,
1086.84,	1085.27,	1083.7,	1082.13,	1080.57,	1079,	1077.44,	1075.89,	1074.33,	1072.78,	1071.23,	1069.69,	1068.14,	1066.6,	1065.06,	1063.53,	1062,	1060.47,	1058.94,	1057.41,	1055.89,
1054.37,	1052.85,	1051.34,	1049.82,	1048.31,	1046.8,	1045.3,	1043.8,	1042.3,	1040.8,	1039.3,	1037.81,	1036.32,	1034.83,	1033.35,	1031.87,	1030.39,	1028.91,	1027.43,	1025.96,	1024.49,
1023.02,	1021.56,	1020.09,	1018.63,	1017.17,	1015.72,	1014.27,	1012.81,	1011.37,	1009.92,	1008.48,	1007.04,	1005.6,	1004.16,	1002.73,	1001.3,	999.87,	998.44,	997.01,	995.59,	994.17,
992.76,	991.34,	989.93,	988.52,	987.11,	985.7,	984.3,	982.9,	981.5,	980.1,	978.71,	977.32,	975.93,	974.54,	973.16,	971.77,	970.39,	969.02,	967.64,	966.27,	964.9,
963.53,	962.16,	960.8,	959.43,	958.07,	956.72,	955.36,	954.01,	952.66,	951.31,	949.96,	948.62,	947.28,	945.94,	944.6,	943.26,	941.93,	940.6,	939.27,	937.94,	936.62,
935.3,	933.98,	932.66,	931.34,	930.03,	928.72,	927.41,	926.1,	924.8,	923.5,	922.2,	920.9,	919.6,	918.31,	917.01,	915.72,	914.44,	913.15,	911.87,	910.59,	909.31,
908.03,	906.75,	905.48,	904.21,	902.94,	901.67,	900.41,	899.15,	897.88,	896.63,	895.37,	894.11,	892.86,	891.61,	890.36,	889.12,	887.87,	886.63,	885.39,	884.15,	882.92,
881.68,	880.45,	879.22,	877.99,	876.76,	875.54,	874.32,	873.1,	871.88,	870.66,	869.45,	868.24,	867.03,	865.82,	864.61,	863.41,	862.21,	861.01,	859.81,	858.61,	857.42,
856.22,	855.03,	853.84,	852.66,	851.47,	850.29,	849.11,	847.93,	846.75,	845.58,	844.4,	843.23,	842.06,	840.89,	839.73,	838.56,	837.4,	836.24,	835.08,	833.93,	832.77,
831.62,	830.47,	829.32,	828.17,	827.03,	825.88,	824.74,	823.6,	822.46,	821.33,	820.19,	819.06,	817.93,	816.8,	815.67,	814.55,	813.42,	812.3,	811.18,	810.07,	808.95,
807.83,	806.72,	805.61,	804.5,	803.4,	802.29,	801.19,	800.08,	798.98,	797.89,	796.79,	795.69,	794.6,	793.51,	792.42,	791.33,	790.25,	789.16,	788.08,	787,	785.92,
784.84,	783.77,	782.69,	781.62,	780.55,	779.48,	778.41,	777.35,	776.28,	775.22,	774.16,	773.1,	772.05,	770.99,	769.94,	768.89,	767.84,	766.79,	765.74,	764.7,	763.65,
762.61,	761.57,	760.53,	759.5,	758.46,	757.43,	756.39,	755.36,	754.34,	753.31,	752.28,	751.26,	750.24,	749.22,	748.2,	747.18,	746.17,	745.15,	744.14,	743.13,	742.12,
741.11,	740.11,	739.1,	738.1,	737.1,	736.1,	735.1,	734.1,	733.11,	732.12,	731.12,	730.13,	729.15,	728.16,	727.17,	726.19,	725.21,	724.23,	723.25,	722.27,	721.29,
720.32,	719.35,	718.37,	717.4,	716.44,	715.47,	714.5,	713.54,	712.58,	711.62,	710.66,	709.7,	708.74,	707.79,	706.84,	705.88,	704.93,	703.98,	703.04,	702.09,	701.15,
700.2,	699.26,	698.32,	697.38,	696.45,	695.51,	694.58,	693.65,	692.72,	691.79,	690.86,	689.93,	689.01,	688.08,	687.16,	686.24,	685.32,	684.4,	683.49,	682.57,	681.66,
680.74,	679.83,	678.92,	678.02,	677.11,	676.2,	675.3,	674.4,	673.5,	672.6,	671.7,	670.8,	669.91,	669.01,	668.12,	667.23,	666.34,	665.45,	664.57,	663.68,	662.8,
661.91,	661.03,	660.15,	659.27,	658.4,	657.52,	656.65,	655.77,	654.9,	654.03,	653.16,	652.29,	651.43,	650.56,	649.7,	648.84,	647.98,	647.12,	646.26,	645.4,	644.55,
643.69,	642.84,	641.99,	641.14,	640.29,	639.44,	638.59,	637.75,	636.9,	636.06,	635.22,	634.38,	633.54,	632.7,	631.87,	631.03,	630.2,	629.37,	628.54,	627.71,	626.88,
626.05,	625.23,	624.4,	623.58,	622.76,	621.94,	621.12,	620.3,	619.48,	618.67,	617.85,	617.04,	616.23,	615.42,	614.61,	613.8,	612.99,	612.19,	611.38,	610.58,	609.78,
608.98,	608.18,	607.38,	606.58,	605.79,	604.99,	604.2,	603.41,	602.62,	601.83,	601.04,	600.25,	599.47,	598.68,	597.9,	597.12,	596.34,	595.56,	594.78,	594,	593.22,
592.45,	591.67,	590.9,	590.13,	589.36,	588.59,	587.82,	587.05,	586.29,	585.52,	584.76,	584,	583.24,	582.48,	581.72,	580.96,	580.21,	579.45,	578.7,	577.94,	577.19,
576.44,	575.69,	574.94,	574.2,	573.45,	572.7,	571.96,	571.22,	570.48,	569.74,	569,	568.26,	567.52,	566.79,	566.05,	565.32,	564.58,	563.85,	563.12,	562.39,	561.67,
560.94,	560.21,	559.49,	558.76,	558.04,	557.32,	556.6,	555.88,	555.16,	554.44,	553.73,	553.01,	552.3,	551.59,	550.88,	550.16,	549.45,	548.75,	548.04,	547.33,	546.63,
545.92,	545.22,	544.52,	543.82,	543.12,	542.42,	541.72,	541.02,	540.33,	539.63,	538.94,	538.25,	537.55,	536.86,	536.17,	535.49,	534.8,	534.11,	533.43,	532.74,	532.06,
531.38,	530.7,	530.02,	529.34,	528.66,	527.98,	527.31,	526.63,	525.96,	525.28,	524.61,	523.94,	523.27,	522.6,	521.93,	521.27,	520.6,	519.93,	519.27,	518.61,	517.95,
517.28,	516.62,	515.97,	515.31,	514.65,	513.99,	513.34,	512.68,	512.03,	511.38,	510.73,	510.08,	509.43,	508.78,	508.13,	507.49,	506.84,	506.2,	505.55,	504.91,	504.27,
503.63,	502.99,	502.35,	501.71,	501.08,	500.44,	499.81,	499.17,	498.54,	497.91,	497.28,	496.65,	496.02,	495.39,	494.76,	494.13,	493.51,	492.88,	492.26,	491.64,	491.02,
490.39,	489.77,	489.16,	488.54,	487.92,	487.3,	486.69,	486.07,	485.46,	484.85,	484.24,	483.63,	483.02,	482.41,	481.8,	481.19,	480.59,	479.98,	479.38,	478.77,	478.17,
477.57,	476.97,	476.37,	475.77,	475.17,	474.57,	473.98,	473.38,	472.79,	472.19,	471.6,	471.01,	470.42,	469.82,	469.24,	468.65,	468.06,	467.47,	466.89,	466.3,	465.72,
465.13,	464.55,	463.97,	463.39,	462.81,	462.23,	461.65,	461.07,	460.5,	459.92,	459.35,	458.77,	458.2,	457.63,	457.06,	456.48,	455.91,	455.35,	454.78,	454.21,	453.64,
453.08,	452.51,	451.95,	451.39,	450.82,	450.26,	449.7,	449.14,	448.58,	448.02,	447.47,	446.91,	446.35,	445.8,	445.25,	444.69,	444.14,	443.59,	443.04,	442.49,	441.94,
441.39,	440.84,	440.29,	439.75,	439.2,	438.66,	438.11,	437.57,	437.03,	436.49,	435.95,	435.41,	434.87,	434.33,	433.79,	433.26,	432.72,	432.19,	431.65,	431.12,	430.59,
430.05,	429.52,	428.99,	428.46,	427.93,	427.4,	426.88,	426.35,	425.83,	425.3,	424.78,	424.25,	423.73,	423.21,	422.69,	422.17,	421.65,	421.13,	420.61,	420.09,	419.57,
419.06,	418.54,	418.03,	417.52,	417,	416.49,	415.98,	415.47,	414.96,	414.45,	413.94,	413.43,	412.92,	412.42,	411.91,	411.41,	410.9,	410.4,	409.9,	409.4,	408.89,
408.39,	407.89,	407.39,	406.9,	406.4,	405.9,	405.41,	404.91,	404.42,	403.92,	403.43,	402.93,	402.44,	401.95,	401.46,	400.97,	400.48,	399.99,	399.51,	399.02,	398.53,
398.05,	397.56,	397.08,	396.59,	396.11,	395.63,	395.15,	394.67,	394.19,	393.71,	393.23,	392.75,	392.27,	391.8,	391.32,	390.85,	390.37,	389.9,	389.42,	388.95,	388.48,
388.01,	387.54,	387.07,	386.6,	386.13,	385.66,	385.19,	384.73,	384.26,	383.8,	383.33,	382.87,	382.41,	381.94,	381.48,	381.02,	380.56,	380.1,	379.64,	379.18,	378.72,
378.27,	377.81,	377.35,	376.9,	376.44,	375.99,	375.54,	375.08,	374.63,	374.18,	373.73,	373.28,	372.83,	372.38,	371.93,	371.48,	371.04,	370.59,	370.15,	369.7,	369.26,
368.81,	368.37,	367.93,	367.48,	367.04,	366.6,	366.16,	365.72,	365.28,	364.85,	364.41,	363.97,	363.53,	363.1,	362.66,	362.23,	361.8,	361.36,	360.93,	360.5,	360.07,
359.64,	359.21,	358.78,	358.35,	357.92,	357.49,	357.06,	356.64,	356.21,	355.79,	355.36,	354.94,	354.51,	354.09,	353.67,	353.25,	352.82,	352.4,	351.98,	351.56,	351.15,
350.73,	350.31,	349.89,	349.48,	349.06,	348.64,	348.23,	347.82,	347.4,	346.99,	346.58,	346.16,	345.75,	345.34,	344.93,	344.52,	344.11,	343.71,	343.3,	342.89,	342.48,
342.08,	341.67,	341.27,	340.86,	340.46,	340.06,	339.65,	339.25,	338.85,	338.45,	338.05,	337.65,	337.25,	336.85,	336.45,	336.05,	335.66,	335.26,	334.86,	334.47,	334.07,
333.68,	333.29,	332.89,	332.5,	332.11,	331.72,	331.33,	330.93,	330.54,	330.16,	329.77,	329.38,	328.99,	328.6,	328.22,	327.83,	327.44,	327.06,	326.67,	326.29,	325.91,
325.52,	325.14,	324.76,	324.38,	324,	323.62,	323.24,	322.86,	322.48,	322.1,	321.72,	321.35,	320.97,	320.59,	320.22,	319.84,	319.47,	319.09,	318.72,	318.35,	317.98,
317.6,	317.23,	316.86,	316.49,	316.12,	315.75,	315.38,	315.01,	314.65,	314.28,	313.91,	313.55,	313.18,	312.81,	312.45,	312.09,	311.72,	311.36,	311,	310.63,	310.27,
309.91,	309.55,	309.19,	308.83,	308.47,	308.11,	307.75,	307.39,	307.04,	306.68,	306.32,	305.97,	305.61,	305.26,	304.9,	304.55,	304.2,	303.84,	303.49,	303.14,	302.79,
302.44,	302.08,	301.73,	301.38,	301.04,	300.69,	300.34,	299.99,	299.64,	299.3,	298.95,	298.61,	298.26,	297.92,	297.57,	297.23,	296.88,	296.54,	296.2,	295.86,	295.51,
295.17,	294.83,	294.49,	294.15,	293.81,	293.47,	293.14,	292.8,	292.46,	292.12,	291.79,	291.45,	291.12,	290.78,	290.45,	290.11,	289.78,	289.45,	289.11,	288.78,	288.45,
288.12,	287.79,	287.46,	287.13,	286.8,	286.47,	286.14,	285.81,	285.48,	285.15,	284.83,	284.5,	284.17,	283.85,	283.52,	283.2,	282.87,	282.55,	282.23,	281.9,	281.58,
281.26,	280.94,	280.62,	280.3,	279.98,	279.66,	279.34,	279.02,	278.7,	278.38,	278.06,	277.74,	277.43,	277.11,	276.79,	276.48,	276.16,	275.85,	275.53,	275.22,	274.91,
274.59,	274.28,	273.97,	273.66,	273.35,	273.04,	272.72,	272.41,	272.1,	271.8,	271.49,	271.18,	270.87,	270.56,	270.25,	269.95,	269.64,	269.34,	269.03,	268.72,	268.42,
268.12,	267.81,	267.51,	267.21,	266.9,	266.6,	266.3,	266,	265.7,	265.39,	265.09,	264.79,	264.5,	264.2,	263.9,	263.6,	263.3,	263,	262.71,	262.41,	262.11,
261.82,	261.52,	261.23,	260.93,	260.64,	260.34,	260.05,	259.76,	259.46,	259.17,	258.88,	258.59,	258.3,	258.01,	257.72,	257.43,	257.14,	256.85,	256.56,	256.27,	255.98,
255.69,	255.41,	255.12,	254.83,	254.55,	254.26,	253.98,	253.69,	253.41,	253.12,	252.84,	252.55,	252.27,	251.99,	251.71,	251.42,	251.14,	250.86,	250.58,	250.3,	250.02,
249.74,	249.46,	249.18,	248.9,	248.62,	248.35,	248.07,	247.79,	247.52,	247.24,	246.96,	246.69,	246.41,	246.14,	245.86,	245.59,	245.31,	245.04,	244.77,	244.49,	244.22,
243.95,	243.68,	243.41,	243.14,	242.86,	242.59,	242.32,	242.06,	241.79,	241.52,	241.25,	240.98,	240.71,	240.44,	240.18,	239.91,	239.64,	239.38,	239.11,	238.85,	238.58,
238.32,	238.05,	237.79,	237.53,	237.26,	237
};

uint32_t  g2_form_value_num = ARRAY_NUM(g2_form_value);

